trial_nb_pe,prolific_id,RT.pe_task,id,prob,pe_task,utt.standardized,slider,uc_task,custom_response,RT.uc_task,cost.uc,trial_nb_uc,human_exp2,pe_task.smooth,education,gender,age,timeSpent
2,5ee454ad40c72e152991826e,24198,if2_hl,b,0.73,blue falls but green does not fall,b,the green block does not fall but the blue block falls,NA,22853,6,3,1,0.7299980800076801,Higher Degree,male,48,22.705416666666668
2,5ee454ad40c72e152991826e,24198,if2_hl,g,0,green falls but blue does not fall,g,NA,NA,NA,NA,NA,NA,9.99996000016e-7,Higher Degree,male,48,22.705416666666668
2,5ee454ad40c72e152991826e,24198,if2_hl,bg,0.27,both blocks fall,bg,NA,NA,NA,NA,NA,NA,0.26999992000032,Higher Degree,male,48,22.705416666666668
2,5ee454ad40c72e152991826e,24198,if2_hl,none,0,neither block falls,none,NA,NA,NA,NA,NA,NA,9.99996000016e-7,Higher Degree,male,48,22.705416666666668
2,5ee454ad40c72e152991826e,24198,if2_hl,p_a,1,blue falls,NA,NA,NA,NA,NA,NA,NA,0.9999980000080001,Higher Degree,male,48,22.705416666666668
2,5ee454ad40c72e152991826e,24198,if2_hl,p_c,0.27,green falls,NA,NA,NA,NA,NA,NA,NA,0.27000091999632003,Higher Degree,male,48,22.705416666666668
2,5ee454ad40c72e152991826e,24198,if2_hl,p_na,0,blue does not fall,NA,NA,NA,NA,NA,NA,NA,1.999992000032e-6,Higher Degree,male,48,22.705416666666668
2,5ee454ad40c72e152991826e,24198,if2_hl,p_nc,0.73,green does not fall,NA,NA,NA,NA,NA,NA,NA,0.7299990800036801,Higher Degree,male,48,22.705416666666668
2,5ee454ad40c72e152991826e,24198,if2_hl,p_c_given_a,0.27,if blue falls green falls,NA,NA,NA,NA,NA,NA,NA,0.27000045999908,Higher Degree,male,48,22.705416666666668
2,5ee454ad40c72e152991826e,24198,if2_hl,p_c_given_na,NA,if blue does not fall green falls,NA,NA,NA,NA,NA,NA,NA,0.5,Higher Degree,male,48,22.705416666666668
2,5ee454ad40c72e152991826e,24198,if2_hl,p_a_given_c,1,if green falls blue falls,NA,NA,NA,NA,NA,NA,NA,0.999996296323731,Higher Degree,male,48,22.705416666666668
2,5ee454ad40c72e152991826e,24198,if2_hl,p_a_given_nc,1,if green does not fall blue falls,NA,NA,NA,NA,NA,NA,NA,0.9999986301407393,Higher Degree,male,48,22.705416666666668
2,5ee454ad40c72e152991826e,24198,if2_hl,p_nc_given_a,0.73,if blue falls green does not fall,NA,NA,NA,NA,NA,NA,NA,0.72999954000092,Higher Degree,male,48,22.705416666666668
2,5ee454ad40c72e152991826e,24198,if2_hl,p_nc_given_na,NA,if blue does not fall green does not fall,NA,NA,NA,NA,NA,NA,NA,0.5,Higher Degree,male,48,22.705416666666668
2,5ee454ad40c72e152991826e,24198,if2_hl,p_na_given_c,0,if green falls blue does not fall,NA,NA,NA,NA,NA,NA,NA,3.703676269064674e-6,Higher Degree,male,48,22.705416666666668
2,5ee454ad40c72e152991826e,24198,if2_hl,p_na_given_nc,0,if green does not fall blue does not fall,NA,NA,NA,NA,NA,NA,NA,1.3698592606595598e-6,Higher Degree,male,48,22.705416666666668
2,5ee454ad40c72e152991826e,24198,if2_hl,p_likely_a,1,blue might fall,NA,NA,NA,NA,NA,NA,NA,0.9999980000080001,Higher Degree,male,48,22.705416666666668
2,5ee454ad40c72e152991826e,24198,if2_hl,p_likely_na,0,blue might not fall,NA,NA,NA,NA,NA,NA,NA,1.999992000032e-6,Higher Degree,male,48,22.705416666666668
2,5ee454ad40c72e152991826e,24198,if2_hl,p_likely_c,0.27,green might fall,NA,NA,NA,NA,NA,NA,NA,0.27000091999632003,Higher Degree,male,48,22.705416666666668
2,5ee454ad40c72e152991826e,24198,if2_hl,p_likely_nc,0.73,green might not fall,NA,NA,NA,NA,NA,NA,NA,0.7299990800036801,Higher Degree,male,48,22.705416666666668
4,5ee454ad40c72e152991826e,19982,if1_uh,b,0.28,blue falls but green does not fall,b,NA,NA,NA,NA,NA,NA,0.27999988000048,Higher Degree,male,48,22.705416666666668
4,5ee454ad40c72e152991826e,19982,if1_uh,g,0,green falls but blue does not fall,g,NA,NA,NA,NA,NA,NA,9.999960000159999e-7,Higher Degree,male,48,22.705416666666668
4,5ee454ad40c72e152991826e,19982,if1_uh,bg,0.66,both blocks fall,bg,both blocks fall,NA,7030,2,5,1,0.65999836000656,Higher Degree,male,48,22.705416666666668
4,5ee454ad40c72e152991826e,19982,if1_uh,none,0.06,neither block falls,none,NA,NA,NA,NA,NA,NA,0.06000075999696,Higher Degree,male,48,22.705416666666668
4,5ee454ad40c72e152991826e,19982,if1_uh,p_a,0.9400000000000001,blue falls,NA,NA,NA,NA,NA,NA,NA,0.9399982400070399,Higher Degree,male,48,22.705416666666668
4,5ee454ad40c72e152991826e,19982,if1_uh,p_c,0.66,green falls,NA,NA,NA,NA,NA,NA,NA,0.65999936000256,Higher Degree,male,48,22.705416666666668
4,5ee454ad40c72e152991826e,19982,if1_uh,p_na,0.06,blue does not fall,NA,NA,NA,NA,NA,NA,NA,0.060001759992960015,Higher Degree,male,48,22.705416666666668
4,5ee454ad40c72e152991826e,19982,if1_uh,p_nc,0.34,green does not fall,NA,NA,NA,NA,NA,NA,NA,0.34000063999744,Higher Degree,male,48,22.705416666666668
4,5ee454ad40c72e152991826e,19982,if1_uh,p_c_given_a,0.7021276595744681,if blue falls green falls,NA,NA,NA,NA,NA,NA,NA,0.702127229516533,Higher Degree,male,48,22.705416666666668
4,5ee454ad40c72e152991826e,19982,if1_uh,p_c_given_na,0,if blue does not fall green falls,NA,NA,NA,NA,NA,NA,NA,1.6666111129629014e-5,Higher Degree,male,48,22.705416666666668
4,5ee454ad40c72e152991826e,19982,if1_uh,p_a_given_c,1,if green falls blue falls,NA,NA,NA,NA,NA,NA,NA,0.9999984848530762,Higher Degree,male,48,22.705416666666668
4,5ee454ad40c72e152991826e,19982,if1_uh,p_a_given_nc,0.823529411764706,if green does not fall blue falls,NA,NA,NA,NA,NA,NA,NA,0.8235275086617138,Higher Degree,male,48,22.705416666666668
4,5ee454ad40c72e152991826e,19982,if1_uh,p_nc_given_a,0.2978723404255319,if blue falls green does not fall,NA,NA,NA,NA,NA,NA,NA,0.29787277048346705,Higher Degree,male,48,22.705416666666668
4,5ee454ad40c72e152991826e,19982,if1_uh,p_nc_given_na,1,if blue does not fall green does not fall,NA,NA,NA,NA,NA,NA,NA,0.9999833338888704,Higher Degree,male,48,22.705416666666668
4,5ee454ad40c72e152991826e,19982,if1_uh,p_na_given_c,0,if green falls blue does not fall,NA,NA,NA,NA,NA,NA,NA,1.5151469237972005e-6,Higher Degree,male,48,22.705416666666668
4,5ee454ad40c72e152991826e,19982,if1_uh,p_na_given_nc,0.1764705882352941,if green does not fall blue does not fall,NA,NA,NA,NA,NA,NA,NA,0.1764724913382862,Higher Degree,male,48,22.705416666666668
4,5ee454ad40c72e152991826e,19982,if1_uh,p_likely_a,0.9400000000000001,blue might fall,NA,NA,NA,NA,NA,NA,NA,0.9399982400070399,Higher Degree,male,48,22.705416666666668
4,5ee454ad40c72e152991826e,19982,if1_uh,p_likely_na,0.06,blue might not fall,NA,NA,NA,NA,NA,NA,NA,0.060001759992960015,Higher Degree,male,48,22.705416666666668
4,5ee454ad40c72e152991826e,19982,if1_uh,p_likely_c,0.66,green might fall,NA,NA,NA,NA,NA,NA,NA,0.65999936000256,Higher Degree,male,48,22.705416666666668
4,5ee454ad40c72e152991826e,19982,if1_uh,p_likely_nc,0.34,green might not fall,NA,NA,NA,NA,NA,NA,NA,0.34000063999744,Higher Degree,male,48,22.705416666666668
6,5ee454ad40c72e152991826e,21678,independent_uh,b,0.16,blue falls but green does not fall,b,NA,NA,NA,NA,NA,NA,0.16000035999856,Higher Degree,male,48,22.705416666666668
6,5ee454ad40c72e152991826e,21678,independent_uh,g,0.27,green falls but blue does not fall,g,NA,NA,NA,NA,NA,NA,0.26999992000031997,Higher Degree,male,48,22.705416666666668
6,5ee454ad40c72e152991826e,21678,independent_uh,bg,0.52,both blocks fall,bg,the green block falls and the blue block falls,NA,21270,5,7,1,0.51999892000432,Higher Degree,male,48,22.705416666666668
6,5ee454ad40c72e152991826e,21678,independent_uh,none,0.05,neither block falls,none,NA,NA,NA,NA,NA,NA,0.05000079999680001,Higher Degree,male,48,22.705416666666668
6,5ee454ad40c72e152991826e,21678,independent_uh,p_a,0.68,blue falls,NA,NA,NA,NA,NA,NA,NA,0.67999928000288,Higher Degree,male,48,22.705416666666668
6,5ee454ad40c72e152991826e,21678,independent_uh,p_c,0.79,green falls,NA,NA,NA,NA,NA,NA,NA,0.78999884000464,Higher Degree,male,48,22.705416666666668
6,5ee454ad40c72e152991826e,21678,independent_uh,p_na,0.32,blue does not fall,NA,NA,NA,NA,NA,NA,NA,0.32000071999712,Higher Degree,male,48,22.705416666666668
6,5ee454ad40c72e152991826e,21678,independent_uh,p_nc,0.21000000000000002,green does not fall,NA,NA,NA,NA,NA,NA,NA,0.21000115999536,Higher Degree,male,48,22.705416666666668
6,5ee454ad40c72e152991826e,21678,independent_uh,p_c_given_a,0.7647058823529411,if blue falls green falls,NA,NA,NA,NA,NA,NA,NA,0.7647051038085182,Higher Degree,male,48,22.705416666666668
6,5ee454ad40c72e152991826e,21678,independent_uh,p_c_given_na,0.84375,if blue does not fall green falls,NA,NA,NA,NA,NA,NA,NA,0.8437478515759276,Higher Degree,male,48,22.705416666666668
6,5ee454ad40c72e152991826e,21678,independent_uh,p_a_given_c,0.6582278481012658,if green falls blue falls,NA,NA,NA,NA,NA,NA,NA,0.6582274475254493,Higher Degree,male,48,22.705416666666668
6,5ee454ad40c72e152991826e,21678,independent_uh,p_a_given_nc,0.7619047619047619,if green does not fall blue falls,NA,NA,NA,NA,NA,NA,NA,0.7619022675974514,Higher Degree,male,48,22.705416666666668
6,5ee454ad40c72e152991826e,21678,independent_uh,p_nc_given_a,0.23529411764705882,if blue falls green does not fall,NA,NA,NA,NA,NA,NA,NA,0.23529489619148175,Higher Degree,male,48,22.705416666666668
6,5ee454ad40c72e152991826e,21678,independent_uh,p_nc_given_na,0.15625,if blue does not fall green does not fall,NA,NA,NA,NA,NA,NA,NA,0.15625214842407234,Higher Degree,male,48,22.705416666666668
6,5ee454ad40c72e152991826e,21678,independent_uh,p_na_given_c,0.34177215189873417,if green falls blue does not fall,NA,NA,NA,NA,NA,NA,NA,0.34177255247455063,Higher Degree,male,48,22.705416666666668
6,5ee454ad40c72e152991826e,21678,independent_uh,p_na_given_nc,0.23809523809523808,if green does not fall blue does not fall,NA,NA,NA,NA,NA,NA,NA,0.23809773240254853,Higher Degree,male,48,22.705416666666668
6,5ee454ad40c72e152991826e,21678,independent_uh,p_likely_a,0.68,blue might fall,NA,NA,NA,NA,NA,NA,NA,0.67999928000288,Higher Degree,male,48,22.705416666666668
6,5ee454ad40c72e152991826e,21678,independent_uh,p_likely_na,0.32,blue might not fall,NA,NA,NA,NA,NA,NA,NA,0.32000071999712,Higher Degree,male,48,22.705416666666668
6,5ee454ad40c72e152991826e,21678,independent_uh,p_likely_c,0.79,green might fall,NA,NA,NA,NA,NA,NA,NA,0.78999884000464,Higher Degree,male,48,22.705416666666668
6,5ee454ad40c72e152991826e,21678,independent_uh,p_likely_nc,0.21000000000000002,green might not fall,NA,NA,NA,NA,NA,NA,NA,0.21000115999536,Higher Degree,male,48,22.705416666666668
8,5ee454ad40c72e152991826e,12991,if1_hh,b,0.25,blue falls but green does not fall,b,NA,NA,NA,NA,NA,NA,0.25,Higher Degree,male,48,22.705416666666668
8,5ee454ad40c72e152991826e,12991,if1_hh,g,0.11,green falls but blue does not fall,g,NA,NA,NA,NA,NA,NA,0.11000055999776003,Higher Degree,male,48,22.705416666666668
8,5ee454ad40c72e152991826e,12991,if1_hh,bg,0.57,both blocks fall,bg,both blocks fall,Both the blue and the green blocks will fall.,22805,2,9,1,0.56999872000512,Higher Degree,male,48,22.705416666666668
8,5ee454ad40c72e152991826e,12991,if1_hh,none,0.07,neither block falls,none,NA,NA,NA,NA,NA,NA,0.07000071999712003,Higher Degree,male,48,22.705416666666668
8,5ee454ad40c72e152991826e,12991,if1_hh,p_a,0.82,blue falls,NA,NA,NA,NA,NA,NA,NA,0.81999872000512,Higher Degree,male,48,22.705416666666668
8,5ee454ad40c72e152991826e,12991,if1_hh,p_c,0.6799999999999999,green falls,NA,NA,NA,NA,NA,NA,NA,0.67999928000288,Higher Degree,male,48,22.705416666666668
8,5ee454ad40c72e152991826e,12991,if1_hh,p_na,0.18,blue does not fall,NA,NA,NA,NA,NA,NA,NA,0.18000127999488005,Higher Degree,male,48,22.705416666666668
8,5ee454ad40c72e152991826e,12991,if1_hh,p_nc,0.32,green does not fall,NA,NA,NA,NA,NA,NA,NA,0.32000071999712004,Higher Degree,male,48,22.705416666666668
8,5ee454ad40c72e152991826e,12991,if1_hh,p_c_given_a,0.6951219512195121,if blue falls green falls,NA,NA,NA,NA,NA,NA,NA,0.6951214753134748,Higher Degree,male,48,22.705416666666668
8,5ee454ad40c72e152991826e,12991,if1_hh,p_c_given_na,0.6111111111111112,if blue does not fall green falls,NA,NA,NA,NA,NA,NA,NA,0.6111098765569272,Higher Degree,male,48,22.705416666666668
8,5ee454ad40c72e152991826e,12991,if1_hh,p_a_given_c,0.8382352941176471,if green falls blue falls,NA,NA,NA,NA,NA,NA,NA,0.8382342993108843,Higher Degree,male,48,22.705416666666668
8,5ee454ad40c72e152991826e,12991,if1_hh,p_a_given_nc,0.78125,if green does not fall blue falls,NA,NA,NA,NA,NA,NA,NA,0.7812482421984862,Higher Degree,male,48,22.705416666666668
8,5ee454ad40c72e152991826e,12991,if1_hh,p_nc_given_a,0.3048780487804878,if blue falls green does not fall,NA,NA,NA,NA,NA,NA,NA,0.30487852468652515,Higher Degree,male,48,22.705416666666668
8,5ee454ad40c72e152991826e,12991,if1_hh,p_nc_given_na,0.38888888888888895,if blue does not fall green does not fall,NA,NA,NA,NA,NA,NA,NA,0.3888901234430729,Higher Degree,male,48,22.705416666666668
8,5ee454ad40c72e152991826e,12991,if1_hh,p_na_given_c,0.16176470588235295,if green falls blue does not fall,NA,NA,NA,NA,NA,NA,NA,0.16176570068911564,Higher Degree,male,48,22.705416666666668
8,5ee454ad40c72e152991826e,12991,if1_hh,p_na_given_nc,0.21875000000000003,if green does not fall blue does not fall,NA,NA,NA,NA,NA,NA,NA,0.21875175780151376,Higher Degree,male,48,22.705416666666668
8,5ee454ad40c72e152991826e,12991,if1_hh,p_likely_a,0.82,blue might fall,NA,NA,NA,NA,NA,NA,NA,0.81999872000512,Higher Degree,male,48,22.705416666666668
8,5ee454ad40c72e152991826e,12991,if1_hh,p_likely_na,0.18,blue might not fall,NA,NA,NA,NA,NA,NA,NA,0.18000127999488005,Higher Degree,male,48,22.705416666666668
8,5ee454ad40c72e152991826e,12991,if1_hh,p_likely_c,0.6799999999999999,green might fall,NA,NA,NA,NA,NA,NA,NA,0.67999928000288,Higher Degree,male,48,22.705416666666668
8,5ee454ad40c72e152991826e,12991,if1_hh,p_likely_nc,0.32,green might not fall,NA,NA,NA,NA,NA,NA,NA,0.32000071999712004,Higher Degree,male,48,22.705416666666668
10,5ee454ad40c72e152991826e,13934,independent_hh,b,0.07,blue falls but green does not fall,b,NA,NA,NA,NA,NA,NA,0.07000071999712003,Higher Degree,male,48,22.705416666666668
10,5ee454ad40c72e152991826e,13934,independent_hh,g,0.32,green falls but blue does not fall,g,the green block falls but the blue block does not,NA,19957,5,11,1,0.31999972000112004,Higher Degree,male,48,22.705416666666668
10,5ee454ad40c72e152991826e,13934,independent_hh,bg,0.61,both blocks fall,bg,NA,NA,NA,NA,NA,NA,0.60999856000576,Higher Degree,male,48,22.705416666666668
10,5ee454ad40c72e152991826e,13934,independent_hh,none,0,neither block falls,none,NA,NA,NA,NA,NA,NA,9.99996000016e-7,Higher Degree,male,48,22.705416666666668
10,5ee454ad40c72e152991826e,13934,independent_hh,p_a,0.6799999999999999,blue falls,NA,NA,NA,NA,NA,NA,NA,0.67999928000288,Higher Degree,male,48,22.705416666666668
10,5ee454ad40c72e152991826e,13934,independent_hh,p_c,0.9299999999999999,green falls,NA,NA,NA,NA,NA,NA,NA,0.92999828000688,Higher Degree,male,48,22.705416666666668
10,5ee454ad40c72e152991826e,13934,independent_hh,p_na,0.32,blue does not fall,NA,NA,NA,NA,NA,NA,NA,0.32000071999712004,Higher Degree,male,48,22.705416666666668
10,5ee454ad40c72e152991826e,13934,independent_hh,p_nc,0.07,green does not fall,NA,NA,NA,NA,NA,NA,NA,0.07000171999312005,Higher Degree,male,48,22.705416666666668
10,5ee454ad40c72e152991826e,13934,independent_hh,p_c_given_a,0.8970588235294118,if blue falls green falls,NA,NA,NA,NA,NA,NA,NA,0.8970576557127774,Higher Degree,male,48,22.705416666666668
10,5ee454ad40c72e152991826e,13934,independent_hh,p_c_given_na,1,if blue does not fall green falls,NA,NA,NA,NA,NA,NA,NA,0.9999968750195312,Higher Degree,male,48,22.705416666666668
10,5ee454ad40c72e152991826e,13934,independent_hh,p_a_given_c,0.6559139784946237,if green falls blue falls,NA,NA,NA,NA,NA,NA,NA,0.6559136431964663,Higher Degree,male,48,22.705416666666668
10,5ee454ad40c72e152991826e,13934,independent_hh,p_a_given_nc,1,if green does not fall blue falls,NA,NA,NA,NA,NA,NA,NA,0.9999857146938659,Higher Degree,male,48,22.705416666666668
10,5ee454ad40c72e152991826e,13934,independent_hh,p_nc_given_a,0.10294117647058826,if blue falls green does not fall,NA,NA,NA,NA,NA,NA,NA,0.10294234428722271,Higher Degree,male,48,22.705416666666668
10,5ee454ad40c72e152991826e,13934,independent_hh,p_nc_given_na,0,if blue does not fall green does not fall,NA,NA,NA,NA,NA,NA,NA,3.1249804688720696e-6,Higher Degree,male,48,22.705416666666668
10,5ee454ad40c72e152991826e,13934,independent_hh,p_na_given_c,0.34408602150537637,if green falls blue does not fall,NA,NA,NA,NA,NA,NA,NA,0.3440863568035338,Higher Degree,male,48,22.705416666666668
10,5ee454ad40c72e152991826e,13934,independent_hh,p_na_given_nc,0,if green does not fall blue does not fall,NA,NA,NA,NA,NA,NA,NA,1.4285306134110452e-5,Higher Degree,male,48,22.705416666666668
10,5ee454ad40c72e152991826e,13934,independent_hh,p_likely_a,0.6799999999999999,blue might fall,NA,NA,NA,NA,NA,NA,NA,0.67999928000288,Higher Degree,male,48,22.705416666666668
10,5ee454ad40c72e152991826e,13934,independent_hh,p_likely_na,0.32,blue might not fall,NA,NA,NA,NA,NA,NA,NA,0.32000071999712004,Higher Degree,male,48,22.705416666666668
10,5ee454ad40c72e152991826e,13934,independent_hh,p_likely_c,0.9299999999999999,green might fall,NA,NA,NA,NA,NA,NA,NA,0.92999828000688,Higher Degree,male,48,22.705416666666668
10,5ee454ad40c72e152991826e,13934,independent_hh,p_likely_nc,0.07,green might not fall,NA,NA,NA,NA,NA,NA,NA,0.07000171999312005,Higher Degree,male,48,22.705416666666668
12,5ee454ad40c72e152991826e,27182,if2_ul,b,0.39,blue falls but green does not fall,b,NA,NA,NA,NA,NA,NA,0.3861380747006943,Higher Degree,male,48,22.705416666666668
12,5ee454ad40c72e152991826e,27182,if2_ul,g,0.17,green falls but blue does not fall,g,NA,NA,NA,NA,NA,NA,0.16831715517958348,Higher Degree,male,48,22.705416666666668
12,5ee454ad40c72e152991826e,27182,if2_ul,bg,0.06,both blocks fall,bg,NA,NA,NA,NA,NA,NA,0.05940669541902805,Higher Degree,male,48,22.705416666666668
12,5ee454ad40c72e152991826e,27182,if2_ul,none,0.39,neither block falls,none,NA,NA,NA,NA,NA,NA,0.3861380747006943,Higher Degree,male,48,22.705416666666668
12,5ee454ad40c72e152991826e,27182,if2_ul,p_a,0.45,blue falls,NA,NA,NA,NA,NA,NA,NA,0.4455447701197223,Higher Degree,male,48,22.705416666666668
12,5ee454ad40c72e152991826e,27182,if2_ul,p_c,0.23,green falls,NA,NA,NA,NA,NA,NA,NA,0.22772385059861153,Higher Degree,male,48,22.705416666666668
12,5ee454ad40c72e152991826e,27182,if2_ul,p_na,0.56,blue does not fall,NA,NA,NA,NA,NA,NA,NA,0.5544552298802777,Higher Degree,male,48,22.705416666666668
12,5ee454ad40c72e152991826e,27182,if2_ul,p_nc,0.78,green does not fall,NA,NA,NA,NA,NA,NA,NA,0.7722761494013886,Higher Degree,male,48,22.705416666666668
12,5ee454ad40c72e152991826e,27182,if2_ul,p_c_given_a,0.13333333333333333,if blue falls green falls,NA,NA,NA,NA,NA,NA,NA,0.1333349629557202,Higher Degree,male,48,22.705416666666668
12,5ee454ad40c72e152991826e,27182,if2_ul,p_c_given_na,0.30357142857142855,if blue does not fall green falls,NA,NA,NA,NA,NA,NA,NA,0.30357213009953543,Higher Degree,male,48,22.705416666666668
12,5ee454ad40c72e152991826e,27182,if2_ul,p_a_given_c,0.2608695652173913,if green falls blue falls,NA,NA,NA,NA,NA,NA,NA,0.2608716445943948,Higher Degree,male,48,22.705416666666668
12,5ee454ad40c72e152991826e,27182,if2_ul,p_a_given_nc,0.5,if green does not fall blue falls,NA,NA,NA,NA,NA,NA,NA,0.5,Higher Degree,male,48,22.705416666666668
12,5ee454ad40c72e152991826e,27182,if2_ul,p_nc_given_a,0.8666666666666667,if blue falls green does not fall,NA,NA,NA,NA,NA,NA,NA,0.8666650370442798,Higher Degree,male,48,22.705416666666668
12,5ee454ad40c72e152991826e,27182,if2_ul,p_nc_given_na,0.6964285714285714,if blue does not fall green does not fall,NA,NA,NA,NA,NA,NA,NA,0.6964278699004647,Higher Degree,male,48,22.705416666666668
12,5ee454ad40c72e152991826e,27182,if2_ul,p_na_given_c,0.7391304347826088,if green falls blue does not fall,NA,NA,NA,NA,NA,NA,NA,0.7391283554056052,Higher Degree,male,48,22.705416666666668
12,5ee454ad40c72e152991826e,27182,if2_ul,p_na_given_nc,0.5,if green does not fall blue does not fall,NA,NA,NA,NA,NA,NA,NA,0.5,Higher Degree,male,48,22.705416666666668
12,5ee454ad40c72e152991826e,27182,if2_ul,p_likely_a,0.45,blue might fall,NA,the blue block might fall,NA,9420,3,13,1,0.4455447701197223,Higher Degree,male,48,22.705416666666668
12,5ee454ad40c72e152991826e,27182,if2_ul,p_likely_na,0.56,blue might not fall,NA,NA,NA,NA,NA,NA,NA,0.5544552298802777,Higher Degree,male,48,22.705416666666668
12,5ee454ad40c72e152991826e,27182,if2_ul,p_likely_c,0.23,green might fall,NA,NA,NA,NA,NA,NA,NA,0.22772385059861153,Higher Degree,male,48,22.705416666666668
12,5ee454ad40c72e152991826e,27182,if2_ul,p_likely_nc,0.78,green might not fall,NA,NA,NA,NA,NA,NA,NA,0.7722761494013886,Higher Degree,male,48,22.705416666666668
14,5ee454ad40c72e152991826e,14013,independent_hl,b,0.44,blue falls but green does not fall,b,the blue block falls but the green block does not,NA,13044,5,15,1,0.43999924000304,Higher Degree,male,48,22.705416666666668
14,5ee454ad40c72e152991826e,14013,independent_hl,g,0.11,green falls but blue does not fall,g,NA,NA,NA,NA,NA,NA,0.11000055999776003,Higher Degree,male,48,22.705416666666668
14,5ee454ad40c72e152991826e,14013,independent_hl,bg,0.42,both blocks fall,bg,NA,NA,NA,NA,NA,NA,0.41999932000272,Higher Degree,male,48,22.705416666666668
14,5ee454ad40c72e152991826e,14013,independent_hl,none,0.03,neither block falls,none,NA,NA,NA,NA,NA,NA,0.030000879996480018,Higher Degree,male,48,22.705416666666668
14,5ee454ad40c72e152991826e,14013,independent_hl,p_a,0.86,blue falls,NA,NA,NA,NA,NA,NA,NA,0.85999856000576,Higher Degree,male,48,22.705416666666668
14,5ee454ad40c72e152991826e,14013,independent_hl,p_c,0.53,green falls,NA,NA,NA,NA,NA,NA,NA,0.52999988000048,Higher Degree,male,48,22.705416666666668
14,5ee454ad40c72e152991826e,14013,independent_hl,p_na,0.14,blue does not fall,NA,NA,NA,NA,NA,NA,NA,0.14000143999424003,Higher Degree,male,48,22.705416666666668
14,5ee454ad40c72e152991826e,14013,independent_hl,p_nc,0.47,green does not fall,NA,NA,NA,NA,NA,NA,NA,0.47000011999952007,Higher Degree,male,48,22.705416666666668
14,5ee454ad40c72e152991826e,14013,independent_hl,p_c_given_a,0.4883720930232558,if blue falls green falls,NA,NA,NA,NA,NA,NA,NA,0.48837212006483705,Higher Degree,male,48,22.705416666666668
14,5ee454ad40c72e152991826e,14013,independent_hl,p_c_given_na,0.7857142857142857,if blue does not fall green falls,NA,NA,NA,NA,NA,NA,NA,0.785710204139941,Higher Degree,male,48,22.705416666666668
14,5ee454ad40c72e152991826e,14013,independent_hl,p_a_given_c,0.7924528301886792,if green falls blue falls,NA,NA,NA,NA,NA,NA,NA,0.792451726597258,Higher Degree,male,48,22.705416666666668
14,5ee454ad40c72e152991826e,14013,independent_hl,p_a_given_nc,0.9361702127659575,if green does not fall blue falls,NA,NA,NA,NA,NA,NA,NA,0.9361683567303969,Higher Degree,male,48,22.705416666666668
14,5ee454ad40c72e152991826e,14013,independent_hl,p_nc_given_a,0.5116279069767442,if blue falls green does not fall,NA,NA,NA,NA,NA,NA,NA,0.511627879935163,Higher Degree,male,48,22.705416666666668
14,5ee454ad40c72e152991826e,14013,independent_hl,p_nc_given_na,0.21428571428571425,if blue does not fall green does not fall,NA,NA,NA,NA,NA,NA,NA,0.21428979586005917,Higher Degree,male,48,22.705416666666668
14,5ee454ad40c72e152991826e,14013,independent_hl,p_na_given_c,0.20754716981132074,if green falls blue does not fall,NA,NA,NA,NA,NA,NA,NA,0.2075482734027419,Higher Degree,male,48,22.705416666666668
14,5ee454ad40c72e152991826e,14013,independent_hl,p_na_given_nc,0.06382978723404255,if green does not fall blue does not fall,NA,NA,NA,NA,NA,NA,NA,0.06383164326960311,Higher Degree,male,48,22.705416666666668
14,5ee454ad40c72e152991826e,14013,independent_hl,p_likely_a,0.86,blue might fall,NA,NA,NA,NA,NA,NA,NA,0.85999856000576,Higher Degree,male,48,22.705416666666668
14,5ee454ad40c72e152991826e,14013,independent_hl,p_likely_na,0.14,blue might not fall,NA,NA,NA,NA,NA,NA,NA,0.14000143999424003,Higher Degree,male,48,22.705416666666668
14,5ee454ad40c72e152991826e,14013,independent_hl,p_likely_c,0.53,green might fall,NA,NA,NA,NA,NA,NA,NA,0.52999988000048,Higher Degree,male,48,22.705416666666668
14,5ee454ad40c72e152991826e,14013,independent_hl,p_likely_nc,0.47,green might not fall,NA,NA,NA,NA,NA,NA,NA,0.47000011999952007,Higher Degree,male,48,22.705416666666668
16,5ee454ad40c72e152991826e,16542,if2_ll,b,0.14,blue falls but green does not fall,b,NA,NA,NA,NA,NA,NA,0.14000043999824,Higher Degree,male,48,22.705416666666668
16,5ee454ad40c72e152991826e,16542,if2_ll,g,0,green falls but blue does not fall,g,NA,NA,NA,NA,NA,NA,9.999960000159999e-7,Higher Degree,male,48,22.705416666666668
16,5ee454ad40c72e152991826e,16542,if2_ll,bg,0.18,both blocks fall,bg,NA,NA,NA,NA,NA,NA,0.18000027999888,Higher Degree,male,48,22.705416666666668
16,5ee454ad40c72e152991826e,16542,if2_ll,none,0.68,neither block falls,none,neither block falls,NA,8301,2,17,1,0.67999828000688,Higher Degree,male,48,22.705416666666668
16,5ee454ad40c72e152991826e,16542,if2_ll,p_a,0.32,blue falls,NA,NA,NA,NA,NA,NA,NA,0.32000071999712,Higher Degree,male,48,22.705416666666668
16,5ee454ad40c72e152991826e,16542,if2_ll,p_c,0.18,green falls,NA,NA,NA,NA,NA,NA,NA,0.18000127999488,Higher Degree,male,48,22.705416666666668
16,5ee454ad40c72e152991826e,16542,if2_ll,p_na,0.68,blue does not fall,NA,NA,NA,NA,NA,NA,NA,0.67999928000288,Higher Degree,male,48,22.705416666666668
16,5ee454ad40c72e152991826e,16542,if2_ll,p_nc,0.8200000000000001,green does not fall,NA,NA,NA,NA,NA,NA,NA,0.81999872000512,Higher Degree,male,48,22.705416666666668
16,5ee454ad40c72e152991826e,16542,if2_ll,p_c_given_a,0.5625,if blue falls green falls,NA,NA,NA,NA,NA,NA,NA,0.5624996093774414,Higher Degree,male,48,22.705416666666668
16,5ee454ad40c72e152991826e,16542,if2_ll,p_c_given_na,0,if blue does not fall green falls,NA,NA,NA,NA,NA,NA,NA,1.4705839100473233e-6,Higher Degree,male,48,22.705416666666668
16,5ee454ad40c72e152991826e,16542,if2_ll,p_a_given_c,1,if green falls blue falls,NA,NA,NA,NA,NA,NA,NA,0.9999944445061723,Higher Degree,male,48,22.705416666666668
16,5ee454ad40c72e152991826e,16542,if2_ll,p_a_given_nc,0.17073170731707318,if green does not fall blue falls,NA,NA,NA,NA,NA,NA,NA,0.17073251040851117,Higher Degree,male,48,22.705416666666668
16,5ee454ad40c72e152991826e,16542,if2_ll,p_nc_given_a,0.43750000000000006,if blue falls green does not fall,NA,NA,NA,NA,NA,NA,NA,0.43750039062255863,Higher Degree,male,48,22.705416666666668
16,5ee454ad40c72e152991826e,16542,if2_ll,p_nc_given_na,1,if blue does not fall green does not fall,NA,NA,NA,NA,NA,NA,NA,0.99999852941609,Higher Degree,male,48,22.705416666666668
16,5ee454ad40c72e152991826e,16542,if2_ll,p_na_given_c,0,if green falls blue does not fall,NA,NA,NA,NA,NA,NA,NA,5.555493827846358e-6,Higher Degree,male,48,22.705416666666668
16,5ee454ad40c72e152991826e,16542,if2_ll,p_na_given_nc,0.8292682926829268,if green does not fall blue does not fall,NA,NA,NA,NA,NA,NA,NA,0.8292674895914889,Higher Degree,male,48,22.705416666666668
16,5ee454ad40c72e152991826e,16542,if2_ll,p_likely_a,0.32,blue might fall,NA,NA,NA,NA,NA,NA,NA,0.32000071999712,Higher Degree,male,48,22.705416666666668
16,5ee454ad40c72e152991826e,16542,if2_ll,p_likely_na,0.68,blue might not fall,NA,NA,NA,NA,NA,NA,NA,0.67999928000288,Higher Degree,male,48,22.705416666666668
16,5ee454ad40c72e152991826e,16542,if2_ll,p_likely_c,0.18,green might fall,NA,NA,NA,NA,NA,NA,NA,0.18000127999488,Higher Degree,male,48,22.705416666666668
16,5ee454ad40c72e152991826e,16542,if2_ll,p_likely_nc,0.8200000000000001,green might not fall,NA,NA,NA,NA,NA,NA,NA,0.81999872000512,Higher Degree,male,48,22.705416666666668
18,5ee454ad40c72e152991826e,13790,if1_u-Lh,b,0.34,blue falls but green does not fall,b,the blue block falls but the green block does not,NA,10238,5,19,1,0.33999964000143995,Higher Degree,male,48,22.705416666666668
18,5ee454ad40c72e152991826e,13790,if1_u-Lh,g,0,green falls but blue does not fall,g,NA,NA,NA,NA,NA,NA,9.999960000159999e-7,Higher Degree,male,48,22.705416666666668
18,5ee454ad40c72e152991826e,13790,if1_u-Lh,bg,0.54,both blocks fall,bg,NA,NA,NA,NA,NA,NA,0.5399988400046399,Higher Degree,male,48,22.705416666666668
18,5ee454ad40c72e152991826e,13790,if1_u-Lh,none,0.12,neither block falls,none,NA,NA,NA,NA,NA,NA,0.12000051999792,Higher Degree,male,48,22.705416666666668
18,5ee454ad40c72e152991826e,13790,if1_u-Lh,p_a,0.8800000000000001,blue falls,NA,NA,NA,NA,NA,NA,NA,0.8799984800060798,Higher Degree,male,48,22.705416666666668
18,5ee454ad40c72e152991826e,13790,if1_u-Lh,p_c,0.54,green falls,NA,NA,NA,NA,NA,NA,NA,0.5399998400006399,Higher Degree,male,48,22.705416666666668
18,5ee454ad40c72e152991826e,13790,if1_u-Lh,p_na,0.12,blue does not fall,NA,NA,NA,NA,NA,NA,NA,0.12000151999392002,Higher Degree,male,48,22.705416666666668
18,5ee454ad40c72e152991826e,13790,if1_u-Lh,p_nc,0.46,green does not fall,NA,NA,NA,NA,NA,NA,NA,0.46000015999935995,Higher Degree,male,48,22.705416666666668
18,5ee454ad40c72e152991826e,13790,if1_u-Lh,p_c_given_a,0.6136363636363636,if blue falls green falls,NA,NA,NA,NA,NA,NA,NA,0.6136361053724878,Higher Degree,male,48,22.705416666666668
18,5ee454ad40c72e152991826e,13790,if1_u-Lh,p_c_given_na,0,if blue does not fall green falls,NA,NA,NA,NA,NA,NA,NA,8.33319444675922e-6,Higher Degree,male,48,22.705416666666668
18,5ee454ad40c72e152991826e,13790,if1_u-Lh,p_a_given_c,1,if green falls blue falls,NA,NA,NA,NA,NA,NA,NA,0.9999981481550069,Higher Degree,male,48,22.705416666666668
18,5ee454ad40c72e152991826e,13790,if1_u-Lh,p_a_given_nc,0.7391304347826088,if green does not fall blue falls,NA,NA,NA,NA,NA,NA,NA,0.7391293950895865,Higher Degree,male,48,22.705416666666668
18,5ee454ad40c72e152991826e,13790,if1_u-Lh,p_nc_given_a,0.38636363636363635,if blue falls green does not fall,NA,NA,NA,NA,NA,NA,NA,0.38636389462751225,Higher Degree,male,48,22.705416666666668
18,5ee454ad40c72e152991826e,13790,if1_u-Lh,p_nc_given_na,1,if blue does not fall green does not fall,NA,NA,NA,NA,NA,NA,NA,0.9999916668055532,Higher Degree,male,48,22.705416666666668
18,5ee454ad40c72e152991826e,13790,if1_u-Lh,p_na_given_c,0,if green falls blue does not fall,NA,NA,NA,NA,NA,NA,NA,1.8518449931666921e-6,Higher Degree,male,48,22.705416666666668
18,5ee454ad40c72e152991826e,13790,if1_u-Lh,p_na_given_nc,0.2608695652173913,if green does not fall blue does not fall,NA,NA,NA,NA,NA,NA,NA,0.2608706049104134,Higher Degree,male,48,22.705416666666668
18,5ee454ad40c72e152991826e,13790,if1_u-Lh,p_likely_a,0.8800000000000001,blue might fall,NA,NA,NA,NA,NA,NA,NA,0.8799984800060798,Higher Degree,male,48,22.705416666666668
18,5ee454ad40c72e152991826e,13790,if1_u-Lh,p_likely_na,0.12,blue might not fall,NA,NA,NA,NA,NA,NA,NA,0.12000151999392002,Higher Degree,male,48,22.705416666666668
18,5ee454ad40c72e152991826e,13790,if1_u-Lh,p_likely_c,0.54,green might fall,NA,NA,NA,NA,NA,NA,NA,0.5399998400006399,Higher Degree,male,48,22.705416666666668
18,5ee454ad40c72e152991826e,13790,if1_u-Lh,p_likely_nc,0.46,green might not fall,NA,NA,NA,NA,NA,NA,NA,0.46000015999935995,Higher Degree,male,48,22.705416666666668
20,5ee454ad40c72e152991826e,14317,independent_ul,b,0.38,blue falls but green does not fall,b,NA,NA,NA,NA,NA,NA,0.37999948000208,Higher Degree,male,48,22.705416666666668
20,5ee454ad40c72e152991826e,14317,independent_ul,g,0.17,green falls but blue does not fall,g,NA,NA,NA,NA,NA,NA,0.17000031999872003,Higher Degree,male,48,22.705416666666668
20,5ee454ad40c72e152991826e,14317,independent_ul,bg,0.09,both blocks fall,bg,NA,NA,NA,NA,NA,NA,0.09000063999744001,Higher Degree,male,48,22.705416666666668
20,5ee454ad40c72e152991826e,14317,independent_ul,none,0.36,neither block falls,none,NA,NA,NA,NA,NA,NA,0.35999956000176,Higher Degree,male,48,22.705416666666668
20,5ee454ad40c72e152991826e,14317,independent_ul,p_a,0.47,blue falls,NA,NA,NA,NA,NA,NA,NA,0.47000011999952,Higher Degree,male,48,22.705416666666668
20,5ee454ad40c72e152991826e,14317,independent_ul,p_c,0.26,green falls,NA,NA,NA,NA,NA,NA,NA,0.26000095999616,Higher Degree,male,48,22.705416666666668
20,5ee454ad40c72e152991826e,14317,independent_ul,p_na,0.53,blue does not fall,NA,NA,NA,NA,NA,NA,NA,0.52999988000048,Higher Degree,male,48,22.705416666666668
20,5ee454ad40c72e152991826e,14317,independent_ul,p_nc,0.74,green does not fall,NA,NA,NA,NA,NA,NA,NA,0.73999904000384,Higher Degree,male,48,22.705416666666668
20,5ee454ad40c72e152991826e,14317,independent_ul,p_c_given_a,0.19148936170212766,if blue falls green falls,NA,NA,NA,NA,NA,NA,NA,0.19149067450776805,Higher Degree,male,48,22.705416666666668
20,5ee454ad40c72e152991826e,14317,independent_ul,p_c_given_na,0.32075471698113206,if blue does not fall green falls,NA,NA,NA,NA,NA,NA,NA,0.3207553933758741,Higher Degree,male,48,22.705416666666668
20,5ee454ad40c72e152991826e,14317,independent_ul,p_a_given_c,0.34615384615384615,if green falls blue falls,NA,NA,NA,NA,NA,NA,NA,0.3461550295766956,Higher Degree,male,48,22.705416666666668
20,5ee454ad40c72e152991826e,14317,independent_ul,p_a_given_nc,0.5135135135135135,if green does not fall blue falls,NA,NA,NA,NA,NA,NA,NA,0.5135134769906028,Higher Degree,male,48,22.705416666666668
20,5ee454ad40c72e152991826e,14317,independent_ul,p_nc_given_a,0.8085106382978724,if blue falls green does not fall,NA,NA,NA,NA,NA,NA,NA,0.808509325492232,Higher Degree,male,48,22.705416666666668
20,5ee454ad40c72e152991826e,14317,independent_ul,p_nc_given_na,0.6792452830188679,if blue does not fall green does not fall,NA,NA,NA,NA,NA,NA,NA,0.6792446066241259,Higher Degree,male,48,22.705416666666668
20,5ee454ad40c72e152991826e,14317,independent_ul,p_na_given_c,0.6538461538461539,if green falls blue does not fall,NA,NA,NA,NA,NA,NA,NA,0.6538449704233046,Higher Degree,male,48,22.705416666666668
20,5ee454ad40c72e152991826e,14317,independent_ul,p_na_given_nc,0.48648648648648646,if green does not fall blue does not fall,NA,NA,NA,NA,NA,NA,NA,0.48648652300939726,Higher Degree,male,48,22.705416666666668
20,5ee454ad40c72e152991826e,14317,independent_ul,p_likely_a,0.47,blue might fall,NA,the blue block might fall,NA,14341,3,21,1,0.47000011999952,Higher Degree,male,48,22.705416666666668
20,5ee454ad40c72e152991826e,14317,independent_ul,p_likely_na,0.53,blue might not fall,NA,NA,NA,NA,NA,NA,NA,0.52999988000048,Higher Degree,male,48,22.705416666666668
20,5ee454ad40c72e152991826e,14317,independent_ul,p_likely_c,0.26,green might fall,NA,NA,NA,NA,NA,NA,NA,0.26000095999616,Higher Degree,male,48,22.705416666666668
20,5ee454ad40c72e152991826e,14317,independent_ul,p_likely_nc,0.74,green might not fall,NA,NA,NA,NA,NA,NA,NA,0.73999904000384,Higher Degree,male,48,22.705416666666668
22,5ee454ad40c72e152991826e,20625,if1_lh,b,0.16,blue falls but green does not fall,b,NA,NA,NA,NA,NA,NA,0.16000035999856,Higher Degree,male,48,22.705416666666668
22,5ee454ad40c72e152991826e,20625,if1_lh,g,0,green falls but blue does not fall,g,NA,NA,NA,NA,NA,NA,9.999960000159999e-7,Higher Degree,male,48,22.705416666666668
22,5ee454ad40c72e152991826e,20625,if1_lh,bg,0.19,both blocks fall,bg,NA,NA,NA,NA,NA,NA,0.19000023999903998,Higher Degree,male,48,22.705416666666668
22,5ee454ad40c72e152991826e,20625,if1_lh,none,0.65,neither block falls,none,neither block falls,NA,4222,2,23,1,0.6499984000064,Higher Degree,male,48,22.705416666666668
22,5ee454ad40c72e152991826e,20625,if1_lh,p_a,0.35,blue falls,NA,NA,NA,NA,NA,NA,NA,0.35000059999759997,Higher Degree,male,48,22.705416666666668
22,5ee454ad40c72e152991826e,20625,if1_lh,p_c,0.19,green falls,NA,NA,NA,NA,NA,NA,NA,0.19000123999503998,Higher Degree,male,48,22.705416666666668
22,5ee454ad40c72e152991826e,20625,if1_lh,p_na,0.65,blue does not fall,NA,NA,NA,NA,NA,NA,NA,0.6499994000024,Higher Degree,male,48,22.705416666666668
22,5ee454ad40c72e152991826e,20625,if1_lh,p_nc,0.81,green does not fall,NA,NA,NA,NA,NA,NA,NA,0.80999876000496,Higher Degree,male,48,22.705416666666668
22,5ee454ad40c72e152991826e,20625,if1_lh,p_c_given_a,0.5428571428571429,if blue falls green falls,NA,NA,NA,NA,NA,NA,NA,0.5428568979605831,Higher Degree,male,48,22.705416666666668
22,5ee454ad40c72e152991826e,20625,if1_lh,p_c_given_na,0,if blue does not fall green falls,NA,NA,NA,NA,NA,NA,NA,1.538456804748293e-6,Higher Degree,male,48,22.705416666666668
22,5ee454ad40c72e152991826e,20625,if1_lh,p_a_given_c,1,if green falls blue falls,NA,NA,NA,NA,NA,NA,NA,0.9999947368975064,Higher Degree,male,48,22.705416666666668
22,5ee454ad40c72e152991826e,20625,if1_lh,p_a_given_nc,0.19753086419753085,if green does not fall blue falls,NA,NA,NA,NA,NA,NA,NA,0.19753161103305916,Higher Degree,male,48,22.705416666666668
22,5ee454ad40c72e152991826e,20625,if1_lh,p_nc_given_a,0.4571428571428572,if blue falls green does not fall,NA,NA,NA,NA,NA,NA,NA,0.45714310203941694,Higher Degree,male,48,22.705416666666668
22,5ee454ad40c72e152991826e,20625,if1_lh,p_nc_given_na,1,if blue does not fall green does not fall,NA,NA,NA,NA,NA,NA,NA,0.9999984615431953,Higher Degree,male,48,22.705416666666668
22,5ee454ad40c72e152991826e,20625,if1_lh,p_na_given_c,0,if green falls blue does not fall,NA,NA,NA,NA,NA,NA,NA,5.263102493657963e-6,Higher Degree,male,48,22.705416666666668
22,5ee454ad40c72e152991826e,20625,if1_lh,p_na_given_nc,0.8024691358024691,if green does not fall blue does not fall,NA,NA,NA,NA,NA,NA,NA,0.8024683889669408,Higher Degree,male,48,22.705416666666668
22,5ee454ad40c72e152991826e,20625,if1_lh,p_likely_a,0.35,blue might fall,NA,NA,NA,NA,NA,NA,NA,0.35000059999759997,Higher Degree,male,48,22.705416666666668
22,5ee454ad40c72e152991826e,20625,if1_lh,p_likely_na,0.65,blue might not fall,NA,NA,NA,NA,NA,NA,NA,0.6499994000024,Higher Degree,male,48,22.705416666666668
22,5ee454ad40c72e152991826e,20625,if1_lh,p_likely_c,0.19,green might fall,NA,NA,NA,NA,NA,NA,NA,0.19000123999503998,Higher Degree,male,48,22.705416666666668
22,5ee454ad40c72e152991826e,20625,if1_lh,p_likely_nc,0.81,green might not fall,NA,NA,NA,NA,NA,NA,NA,0.80999876000496,Higher Degree,male,48,22.705416666666668
24,5ee454ad40c72e152991826e,20822,if2_u-Ll,b,0.15,blue falls but green does not fall,b,NA,NA,NA,NA,NA,NA,0.1500003999984,Higher Degree,male,48,22.705416666666668
24,5ee454ad40c72e152991826e,20822,if2_u-Ll,g,0,green falls but blue does not fall,g,NA,NA,NA,NA,NA,NA,9.99996000016e-7,Higher Degree,male,48,22.705416666666668
24,5ee454ad40c72e152991826e,20822,if2_u-Ll,bg,0.61,both blocks fall,bg,NA,NA,NA,NA,NA,NA,0.60999856000576,Higher Degree,male,48,22.705416666666668
24,5ee454ad40c72e152991826e,20822,if2_u-Ll,none,0.24,neither block falls,none,NA,NA,NA,NA,NA,NA,0.24000003999984001,Higher Degree,male,48,22.705416666666668
24,5ee454ad40c72e152991826e,20822,if2_u-Ll,p_a,0.76,blue falls,NA,NA,NA,NA,NA,NA,NA,0.75999896000416,Higher Degree,male,48,22.705416666666668
24,5ee454ad40c72e152991826e,20822,if2_u-Ll,p_c,0.61,green falls,NA,NA,NA,NA,NA,NA,NA,0.60999956000176,Higher Degree,male,48,22.705416666666668
24,5ee454ad40c72e152991826e,20822,if2_u-Ll,p_na,0.24,blue does not fall,NA,NA,NA,NA,NA,NA,NA,0.24000103999584002,Higher Degree,male,48,22.705416666666668
24,5ee454ad40c72e152991826e,20822,if2_u-Ll,p_nc,0.39,green does not fall,NA,NA,NA,NA,NA,NA,NA,0.39000043999824,Higher Degree,male,48,22.705416666666668
24,5ee454ad40c72e152991826e,20822,if2_u-Ll,p_c_given_a,0.8026315789473684,if blue falls green falls,NA,NA,NA,NA,NA,NA,NA,0.8026307825505723,Higher Degree,male,48,22.705416666666668
24,5ee454ad40c72e152991826e,20822,if2_u-Ll,p_c_given_na,0,if blue does not fall green falls,NA,NA,NA,NA,NA,NA,NA,4.166631944733795e-6,Higher Degree,male,48,22.705416666666668
24,5ee454ad40c72e152991826e,20822,if2_u-Ll,p_a_given_c,1,if green falls blue falls,NA,NA,NA,NA,NA,NA,NA,0.9999983606611126,Higher Degree,male,48,22.705416666666668
24,5ee454ad40c72e152991826e,20822,if2_u-Ll,p_a_given_nc,0.3846153846153846,if green does not fall blue falls,NA,NA,NA,NA,NA,NA,NA,0.3846159763283265,Higher Degree,male,48,22.705416666666668
24,5ee454ad40c72e152991826e,20822,if2_u-Ll,p_nc_given_a,0.19736842105263158,if blue falls green does not fall,NA,NA,NA,NA,NA,NA,NA,0.19736921744942776,Higher Degree,male,48,22.705416666666668
24,5ee454ad40c72e152991826e,20822,if2_u-Ll,p_nc_given_na,1,if blue does not fall green does not fall,NA,NA,NA,NA,NA,NA,NA,0.9999958333680553,Higher Degree,male,48,22.705416666666668
24,5ee454ad40c72e152991826e,20822,if2_u-Ll,p_na_given_c,0,if green falls blue does not fall,NA,NA,NA,NA,NA,NA,NA,1.639338887413484e-6,Higher Degree,male,48,22.705416666666668
24,5ee454ad40c72e152991826e,20822,if2_u-Ll,p_na_given_nc,0.6153846153846153,if green does not fall blue does not fall,NA,NA,NA,NA,NA,NA,NA,0.6153840236716734,Higher Degree,male,48,22.705416666666668
24,5ee454ad40c72e152991826e,20822,if2_u-Ll,p_likely_a,0.76,blue might fall,NA,the blue block might fall,NA,6763,3,25,1,0.75999896000416,Higher Degree,male,48,22.705416666666668
24,5ee454ad40c72e152991826e,20822,if2_u-Ll,p_likely_na,0.24,blue might not fall,NA,NA,NA,NA,NA,NA,NA,0.24000103999584002,Higher Degree,male,48,22.705416666666668
24,5ee454ad40c72e152991826e,20822,if2_u-Ll,p_likely_c,0.61,green might fall,NA,NA,NA,NA,NA,NA,NA,0.60999956000176,Higher Degree,male,48,22.705416666666668
24,5ee454ad40c72e152991826e,20822,if2_u-Ll,p_likely_nc,0.39,green might not fall,NA,NA,NA,NA,NA,NA,NA,0.39000043999824,Higher Degree,male,48,22.705416666666668
26,5ee454ad40c72e152991826e,18935,independent_ll,b,0,blue falls but green does not fall,b,NA,NA,NA,NA,NA,NA,9.999960000159999e-7,Higher Degree,male,48,22.705416666666668
26,5ee454ad40c72e152991826e,18935,independent_ll,g,0.2,green falls but blue does not fall,g,NA,NA,NA,NA,NA,NA,0.2000001999992,Higher Degree,male,48,22.705416666666668
26,5ee454ad40c72e152991826e,18935,independent_ll,bg,0.06,both blocks fall,bg,NA,NA,NA,NA,NA,NA,0.06000075999696,Higher Degree,male,48,22.705416666666668
26,5ee454ad40c72e152991826e,18935,independent_ll,none,0.74,neither block falls,none,neither block falls,NA,5077,2,27,1,0.7399980400078399,Higher Degree,male,48,22.705416666666668
26,5ee454ad40c72e152991826e,18935,independent_ll,p_a,0.06,blue falls,NA,NA,NA,NA,NA,NA,NA,0.060001759992960015,Higher Degree,male,48,22.705416666666668
26,5ee454ad40c72e152991826e,18935,independent_ll,p_c,0.26,green falls,NA,NA,NA,NA,NA,NA,NA,0.26000095999616,Higher Degree,male,48,22.705416666666668
26,5ee454ad40c72e152991826e,18935,independent_ll,p_na,0.94,blue does not fall,NA,NA,NA,NA,NA,NA,NA,0.9399982400070399,Higher Degree,male,48,22.705416666666668
26,5ee454ad40c72e152991826e,18935,independent_ll,p_nc,0.74,green does not fall,NA,NA,NA,NA,NA,NA,NA,0.7399990400038399,Higher Degree,male,48,22.705416666666668
26,5ee454ad40c72e152991826e,18935,independent_ll,p_c_given_a,1,if blue falls green falls,NA,NA,NA,NA,NA,NA,NA,0.9999833338888704,Higher Degree,male,48,22.705416666666668
26,5ee454ad40c72e152991826e,18935,independent_ll,p_c_given_na,0.21276595744680854,if blue does not fall green falls,NA,NA,NA,NA,NA,NA,NA,0.21276656858176898,Higher Degree,male,48,22.705416666666668
26,5ee454ad40c72e152991826e,18935,independent_ll,p_a_given_c,0.23076923076923075,if green falls blue falls,NA,NA,NA,NA,NA,NA,NA,0.2307713017592172,Higher Degree,male,48,22.705416666666668
26,5ee454ad40c72e152991826e,18935,independent_ll,p_a_given_nc,0,if green does not fall blue falls,NA,NA,NA,NA,NA,NA,NA,1.351347699060273e-6,Higher Degree,male,48,22.705416666666668
26,5ee454ad40c72e152991826e,18935,independent_ll,p_nc_given_a,0,if blue falls green does not fall,NA,NA,NA,NA,NA,NA,NA,1.6666111129629014e-5,Higher Degree,male,48,22.705416666666668
26,5ee454ad40c72e152991826e,18935,independent_ll,p_nc_given_na,0.7872340425531915,if blue does not fall green does not fall,NA,NA,NA,NA,NA,NA,NA,0.787233431418231,Higher Degree,male,48,22.705416666666668
26,5ee454ad40c72e152991826e,18935,independent_ll,p_na_given_c,0.7692307692307693,if green falls blue does not fall,NA,NA,NA,NA,NA,NA,NA,0.7692286982407827,Higher Degree,male,48,22.705416666666668
26,5ee454ad40c72e152991826e,18935,independent_ll,p_na_given_nc,1,if green does not fall blue does not fall,NA,NA,NA,NA,NA,NA,NA,0.9999986486523009,Higher Degree,male,48,22.705416666666668
26,5ee454ad40c72e152991826e,18935,independent_ll,p_likely_a,0.06,blue might fall,NA,NA,NA,NA,NA,NA,NA,0.060001759992960015,Higher Degree,male,48,22.705416666666668
26,5ee454ad40c72e152991826e,18935,independent_ll,p_likely_na,0.94,blue might not fall,NA,NA,NA,NA,NA,NA,NA,0.9399982400070399,Higher Degree,male,48,22.705416666666668
26,5ee454ad40c72e152991826e,18935,independent_ll,p_likely_c,0.26,green might fall,NA,NA,NA,NA,NA,NA,NA,0.26000095999616,Higher Degree,male,48,22.705416666666668
26,5ee454ad40c72e152991826e,18935,independent_ll,p_likely_nc,0.74,green might not fall,NA,NA,NA,NA,NA,NA,NA,0.7399990400038399,Higher Degree,male,48,22.705416666666668
2,5df009be35886f068d794ebd,38212,if2_hl,b,0.04,blue falls but green does not fall,b,NA,NA,NA,NA,NA,NA,0.040404887252980796,Graduated High School,female,42,29.741333333333333
2,5df009be35886f068d794ebd,38212,if2_hl,g,0.22,green falls but blue does not fall,g,NA,NA,NA,NA,NA,NA,0.22222233445521433,Graduated High School,female,42,29.741333333333333
2,5df009be35886f068d794ebd,38212,if2_hl,bg,0.4,both blocks fall,bg,NA,NA,NA,NA,NA,NA,0.40403978165744786,Graduated High School,female,42,29.741333333333333
2,5df009be35886f068d794ebd,38212,if2_hl,none,0.33,neither block falls,none,NA,NA,NA,NA,NA,NA,0.333332996634357,Graduated High School,female,42,29.741333333333333
2,5df009be35886f068d794ebd,38212,if2_hl,p_a,0.44,blue falls,NA,NA,NA,NA,NA,NA,NA,0.44444466891042866,Graduated High School,female,42,29.741333333333333
2,5df009be35886f068d794ebd,38212,if2_hl,p_c,0.62,green falls,NA,NA,NA,NA,NA,NA,NA,0.6262621161126622,Graduated High School,female,42,29.741333333333333
2,5df009be35886f068d794ebd,38212,if2_hl,p_na,0.55,blue does not fall,NA,NA,NA,NA,NA,NA,NA,0.5555553310895713,Graduated High School,female,42,29.741333333333333
2,5df009be35886f068d794ebd,38212,if2_hl,p_nc,0.37,green does not fall,NA,NA,NA,NA,NA,NA,NA,0.3737378838873378,Graduated High School,female,42,29.741333333333333
2,5df009be35886f068d794ebd,38212,if2_hl,p_c_given_a,0.9090909090909092,if blue falls green falls,NA,if the blue block falls the green block falls as well,NA,34475,6,3,1,0.9090890495952291,Graduated High School,female,42,29.741333333333333
2,5df009be35886f068d794ebd,38212,if2_hl,p_c_given_na,0.39999999999999997,if blue does not fall green falls,NA,NA,NA,NA,NA,NA,NA,0.4000003636350414,Graduated High School,female,42,29.741333333333333
2,5df009be35886f068d794ebd,38212,if2_hl,p_a_given_c,0.6451612903225807,if green falls blue falls,NA,NA,NA,NA,NA,NA,NA,0.6451608220618642,Graduated High School,female,42,29.741333333333333
2,5df009be35886f068d794ebd,38212,if2_hl,p_a_given_nc,0.10810810810810811,if green does not fall blue falls,NA,NA,NA,NA,NA,NA,NA,0.10811022643120849,Graduated High School,female,42,29.741333333333333
2,5df009be35886f068d794ebd,38212,if2_hl,p_nc_given_a,0.09090909090909091,if blue falls green does not fall,NA,NA,NA,NA,NA,NA,NA,0.09091095040477089,Graduated High School,female,42,29.741333333333333
2,5df009be35886f068d794ebd,38212,if2_hl,p_nc_given_na,0.6,if blue does not fall green does not fall,NA,NA,NA,NA,NA,NA,NA,0.5999996363649587,Graduated High School,female,42,29.741333333333333
2,5df009be35886f068d794ebd,38212,if2_hl,p_na_given_c,0.3548387096774194,if green falls blue does not fall,NA,NA,NA,NA,NA,NA,NA,0.35483917793813563,Graduated High School,female,42,29.741333333333333
2,5df009be35886f068d794ebd,38212,if2_hl,p_na_given_nc,0.891891891891892,if green does not fall blue does not fall,NA,NA,NA,NA,NA,NA,NA,0.8918897735687915,Graduated High School,female,42,29.741333333333333
2,5df009be35886f068d794ebd,38212,if2_hl,p_likely_a,0.44,blue might fall,NA,NA,NA,NA,NA,NA,NA,0.44444466891042866,Graduated High School,female,42,29.741333333333333
2,5df009be35886f068d794ebd,38212,if2_hl,p_likely_na,0.55,blue might not fall,NA,NA,NA,NA,NA,NA,NA,0.5555553310895713,Graduated High School,female,42,29.741333333333333
2,5df009be35886f068d794ebd,38212,if2_hl,p_likely_c,0.62,green might fall,NA,NA,NA,NA,NA,NA,NA,0.6262621161126622,Graduated High School,female,42,29.741333333333333
2,5df009be35886f068d794ebd,38212,if2_hl,p_likely_nc,0.37,green might not fall,NA,NA,NA,NA,NA,NA,NA,0.3737378838873378,Graduated High School,female,42,29.741333333333333
4,5df009be35886f068d794ebd,27282,if1_u-Lh,b,0.21,blue falls but green does not fall,b,NA,NA,NA,NA,NA,NA,0.21000015999936003,Graduated High School,female,42,29.741333333333333
4,5df009be35886f068d794ebd,27282,if1_u-Lh,g,0,green falls but blue does not fall,g,NA,NA,NA,NA,NA,NA,9.99996000016e-7,Graduated High School,female,42,29.741333333333333
4,5df009be35886f068d794ebd,27282,if1_u-Lh,bg,0.37,both blocks fall,bg,NA,NA,NA,NA,NA,NA,0.36999952000192,Graduated High School,female,42,29.741333333333333
4,5df009be35886f068d794ebd,27282,if1_u-Lh,none,0.42,neither block falls,none,NA,NA,NA,NA,NA,NA,0.41999932000272,Graduated High School,female,42,29.741333333333333
4,5df009be35886f068d794ebd,27282,if1_u-Lh,p_a,0.58,blue falls,NA,NA,NA,NA,NA,NA,NA,0.57999968000128,Graduated High School,female,42,29.741333333333333
4,5df009be35886f068d794ebd,27282,if1_u-Lh,p_c,0.37,green falls,NA,NA,NA,NA,NA,NA,NA,0.37000051999792,Graduated High School,female,42,29.741333333333333
4,5df009be35886f068d794ebd,27282,if1_u-Lh,p_na,0.42,blue does not fall,NA,NA,NA,NA,NA,NA,NA,0.42000031999872,Graduated High School,female,42,29.741333333333333
4,5df009be35886f068d794ebd,27282,if1_u-Lh,p_nc,0.63,green does not fall,NA,NA,NA,NA,NA,NA,NA,0.6299994800020801,Graduated High School,female,42,29.741333333333333
4,5df009be35886f068d794ebd,27282,if1_u-Lh,p_c_given_a,0.6379310344827587,if blue falls green falls,NA,if the blue block falls the green block falls as well,NA,23898,6,5,1,0.6379305588601418,Graduated High School,female,42,29.741333333333333
4,5df009be35886f068d794ebd,27282,if1_u-Lh,p_c_given_na,0,if blue does not fall green falls,NA,NA,NA,NA,NA,NA,NA,2.38094104313789e-6,Graduated High School,female,42,29.741333333333333
4,5df009be35886f068d794ebd,27282,if1_u-Lh,p_a_given_c,1,if green falls blue falls,NA,NA,NA,NA,NA,NA,NA,0.9999972973119065,Graduated High School,female,42,29.741333333333333
4,5df009be35886f068d794ebd,27282,if1_u-Lh,p_a_given_nc,0.3333333333333333,if green does not fall blue falls,NA,NA,NA,NA,NA,NA,NA,0.33333386243218277,Graduated High School,female,42,29.741333333333333
4,5df009be35886f068d794ebd,27282,if1_u-Lh,p_nc_given_a,0.3620689655172414,if blue falls green does not fall,NA,NA,NA,NA,NA,NA,NA,0.3620694411398582,Graduated High School,female,42,29.741333333333333
4,5df009be35886f068d794ebd,27282,if1_u-Lh,p_nc_given_na,1,if blue does not fall green does not fall,NA,NA,NA,NA,NA,NA,NA,0.9999976190589569,Graduated High School,female,42,29.741333333333333
4,5df009be35886f068d794ebd,27282,if1_u-Lh,p_na_given_c,0,if green falls blue does not fall,NA,NA,NA,NA,NA,NA,NA,2.702688093577873e-6,Graduated High School,female,42,29.741333333333333
4,5df009be35886f068d794ebd,27282,if1_u-Lh,p_na_given_nc,0.6666666666666666,if green does not fall blue does not fall,NA,NA,NA,NA,NA,NA,NA,0.6666661375678172,Graduated High School,female,42,29.741333333333333
4,5df009be35886f068d794ebd,27282,if1_u-Lh,p_likely_a,0.58,blue might fall,NA,NA,NA,NA,NA,NA,NA,0.57999968000128,Graduated High School,female,42,29.741333333333333
4,5df009be35886f068d794ebd,27282,if1_u-Lh,p_likely_na,0.42,blue might not fall,NA,NA,NA,NA,NA,NA,NA,0.42000031999872,Graduated High School,female,42,29.741333333333333
4,5df009be35886f068d794ebd,27282,if1_u-Lh,p_likely_c,0.37,green might fall,NA,NA,NA,NA,NA,NA,NA,0.37000051999792,Graduated High School,female,42,29.741333333333333
4,5df009be35886f068d794ebd,27282,if1_u-Lh,p_likely_nc,0.63,green might not fall,NA,NA,NA,NA,NA,NA,NA,0.6299994800020801,Graduated High School,female,42,29.741333333333333
6,5df009be35886f068d794ebd,26443,independent_ul,b,0.54,blue falls but green does not fall,b,NA,NA,NA,NA,NA,NA,0.5399988400046399,Graduated High School,female,42,29.741333333333333
6,5df009be35886f068d794ebd,26443,independent_ul,g,0.03,green falls but blue does not fall,g,NA,NA,NA,NA,NA,NA,0.03000087999648001,Graduated High School,female,42,29.741333333333333
6,5df009be35886f068d794ebd,26443,independent_ul,bg,0.33,both blocks fall,bg,NA,NA,NA,NA,NA,NA,0.32999968000127994,Graduated High School,female,42,29.741333333333333
6,5df009be35886f068d794ebd,26443,independent_ul,none,0.1,neither block falls,none,NA,NA,NA,NA,NA,NA,0.1000005999976,Graduated High School,female,42,29.741333333333333
6,5df009be35886f068d794ebd,26443,independent_ul,p_a,0.8700000000000001,blue falls,NA,NA,NA,NA,NA,NA,NA,0.8699985200059199,Graduated High School,female,42,29.741333333333333
6,5df009be35886f068d794ebd,26443,independent_ul,p_c,0.36,green falls,NA,NA,NA,NA,NA,NA,NA,0.36000055999775993,Graduated High School,female,42,29.741333333333333
6,5df009be35886f068d794ebd,26443,independent_ul,p_na,0.13,blue does not fall,NA,NA,NA,NA,NA,NA,NA,0.13000147999408002,Graduated High School,female,42,29.741333333333333
6,5df009be35886f068d794ebd,26443,independent_ul,p_nc,0.64,green does not fall,NA,NA,NA,NA,NA,NA,NA,0.63999944000224,Graduated High School,female,42,29.741333333333333
6,5df009be35886f068d794ebd,26443,independent_ul,p_c_given_a,0.3793103448275862,if blue falls green falls,NA,NA,NA,NA,NA,NA,NA,0.3793106222744315,Graduated High School,female,42,29.741333333333333
6,5df009be35886f068d794ebd,26443,independent_ul,p_c_given_na,0.23076923076923075,if blue does not fall green falls,NA,NA,NA,NA,NA,NA,NA,0.2307733727173428,Graduated High School,female,42,29.741333333333333
6,5df009be35886f068d794ebd,26443,independent_ul,p_a_given_c,0.9166666666666667,if green falls blue falls,NA,NA,NA,NA,NA,NA,NA,0.916664351864712,Graduated High School,female,42,29.741333333333333
6,5df009be35886f068d794ebd,26443,independent_ul,p_a_given_nc,0.84375,if green does not fall blue falls,NA,NA,NA,NA,NA,NA,NA,0.8437489257846069,Graduated High School,female,42,29.741333333333333
6,5df009be35886f068d794ebd,26443,independent_ul,p_nc_given_a,0.6206896551724138,if blue falls green does not fall,NA,NA,NA,NA,NA,NA,NA,0.6206893777255684,Graduated High School,female,42,29.741333333333333
6,5df009be35886f068d794ebd,26443,independent_ul,p_nc_given_na,0.7692307692307693,if blue does not fall green does not fall,NA,NA,NA,NA,NA,NA,NA,0.7692266272826571,Graduated High School,female,42,29.741333333333333
6,5df009be35886f068d794ebd,26443,independent_ul,p_na_given_c,0.08333333333333333,if green falls blue does not fall,NA,NA,NA,NA,NA,NA,NA,0.08333564813528814,Graduated High School,female,42,29.741333333333333
6,5df009be35886f068d794ebd,26443,independent_ul,p_na_given_nc,0.15625,if green does not fall blue does not fall,NA,NA,NA,NA,NA,NA,NA,0.15625107421539305,Graduated High School,female,42,29.741333333333333
6,5df009be35886f068d794ebd,26443,independent_ul,p_likely_a,0.8700000000000001,blue might fall,NA,the blue block might fall,NA,36746,3,7,1,0.8699985200059199,Graduated High School,female,42,29.741333333333333
6,5df009be35886f068d794ebd,26443,independent_ul,p_likely_na,0.13,blue might not fall,NA,NA,NA,NA,NA,NA,NA,0.13000147999408002,Graduated High School,female,42,29.741333333333333
6,5df009be35886f068d794ebd,26443,independent_ul,p_likely_c,0.36,green might fall,NA,NA,NA,NA,NA,NA,NA,0.36000055999775993,Graduated High School,female,42,29.741333333333333
6,5df009be35886f068d794ebd,26443,independent_ul,p_likely_nc,0.64,green might not fall,NA,NA,NA,NA,NA,NA,NA,0.63999944000224,Graduated High School,female,42,29.741333333333333
8,5df009be35886f068d794ebd,30123,if1_hh,b,0.25,blue falls but green does not fall,b,NA,NA,NA,NA,NA,NA,0.2475247622781692,Graduated High School,female,42,29.741333333333333
8,5df009be35886f068d794ebd,30123,if1_hh,g,0,green falls but blue does not fall,g,NA,NA,NA,NA,NA,NA,9.900950887323218e-7,Graduated High School,female,42,29.741333333333333
8,5df009be35886f068d794ebd,30123,if1_hh,bg,0.4,both blocks fall,bg,NA,NA,NA,NA,NA,NA,0.3960390255880175,Graduated High School,female,42,29.741333333333333
8,5df009be35886f068d794ebd,30123,if1_hh,none,0.36,neither block falls,none,NA,NA,NA,NA,NA,NA,0.3564352220387246,Graduated High School,female,42,29.741333333333333
8,5df009be35886f068d794ebd,30123,if1_hh,p_a,0.65,blue falls,NA,NA,NA,NA,NA,NA,NA,0.6435637878661867,Graduated High School,female,42,29.741333333333333
8,5df009be35886f068d794ebd,30123,if1_hh,p_c,0.4,green falls,NA,NA,NA,NA,NA,NA,NA,0.39604001568310626,Graduated High School,female,42,29.741333333333333
8,5df009be35886f068d794ebd,30123,if1_hh,p_na,0.36,blue does not fall,NA,NA,NA,NA,NA,NA,NA,0.3564362121338133,Graduated High School,female,42,29.741333333333333
8,5df009be35886f068d794ebd,30123,if1_hh,p_nc,0.61,green does not fall,NA,NA,NA,NA,NA,NA,NA,0.6039599843168938,Graduated High School,female,42,29.741333333333333
8,5df009be35886f068d794ebd,30123,if1_hh,p_c_given_a,0.6153846153846154,if blue falls green falls,NA,if the blue block falls the green block falls as well,NA,17459,6,9,1,0.615384260356122,Graduated High School,female,42,29.741333333333333
8,5df009be35886f068d794ebd,30123,if1_hh,p_c_given_na,0,if blue does not fall green falls,NA,NA,NA,NA,NA,NA,NA,2.777762345764746e-6,Graduated High School,female,42,29.741333333333333
8,5df009be35886f068d794ebd,30123,if1_hh,p_a_given_c,1,if green falls blue falls,NA,NA,NA,NA,NA,NA,NA,0.9999975000124999,Graduated High School,female,42,29.741333333333333
8,5df009be35886f068d794ebd,30123,if1_hh,p_a_given_nc,0.4098360655737705,if green does not fall blue falls,NA,NA,NA,NA,NA,NA,NA,0.40983636119225836,Graduated High School,female,42,29.741333333333333
8,5df009be35886f068d794ebd,30123,if1_hh,p_nc_given_a,0.3846153846153846,if blue falls green does not fall,NA,NA,NA,NA,NA,NA,NA,0.38461573964387796,Graduated High School,female,42,29.741333333333333
8,5df009be35886f068d794ebd,30123,if1_hh,p_nc_given_na,1,if blue does not fall green does not fall,NA,NA,NA,NA,NA,NA,NA,0.9999972222376542,Graduated High School,female,42,29.741333333333333
8,5df009be35886f068d794ebd,30123,if1_hh,p_na_given_c,0,if green falls blue does not fall,NA,NA,NA,NA,NA,NA,NA,2.4999875000624994e-06,Graduated High School,female,42,29.741333333333333
8,5df009be35886f068d794ebd,30123,if1_hh,p_na_given_nc,0.5901639344262295,if green does not fall blue does not fall,NA,NA,NA,NA,NA,NA,NA,0.5901636388077416,Graduated High School,female,42,29.741333333333333
8,5df009be35886f068d794ebd,30123,if1_hh,p_likely_a,0.65,blue might fall,NA,NA,NA,NA,NA,NA,NA,0.6435637878661867,Graduated High School,female,42,29.741333333333333
8,5df009be35886f068d794ebd,30123,if1_hh,p_likely_na,0.36,blue might not fall,NA,NA,NA,NA,NA,NA,NA,0.3564362121338133,Graduated High School,female,42,29.741333333333333
8,5df009be35886f068d794ebd,30123,if1_hh,p_likely_c,0.4,green might fall,NA,NA,NA,NA,NA,NA,NA,0.39604001568310626,Graduated High School,female,42,29.741333333333333
8,5df009be35886f068d794ebd,30123,if1_hh,p_likely_nc,0.61,green might not fall,NA,NA,NA,NA,NA,NA,NA,0.6039599843168938,Graduated High School,female,42,29.741333333333333
10,5df009be35886f068d794ebd,30212,independent_ll,b,0.51,blue falls but green does not fall,b,NA,NA,NA,NA,NA,NA,0.50999896000416,Graduated High School,female,42,29.741333333333333
10,5df009be35886f068d794ebd,30212,independent_ll,g,0.02,green falls but blue does not fall,g,NA,NA,NA,NA,NA,NA,0.020000919996320015,Graduated High School,female,42,29.741333333333333
10,5df009be35886f068d794ebd,30212,independent_ll,bg,0.07,both blocks fall,bg,NA,NA,NA,NA,NA,NA,0.07000071999712001,Graduated High School,female,42,29.741333333333333
10,5df009be35886f068d794ebd,30212,independent_ll,none,0.4,neither block falls,none,NA,NA,NA,NA,NA,NA,0.3999994000023999,Graduated High School,female,42,29.741333333333333
10,5df009be35886f068d794ebd,30212,independent_ll,p_a,0.5800000000000001,blue falls,NA,NA,NA,NA,NA,NA,NA,0.57999968000128,Graduated High School,female,42,29.741333333333333
10,5df009be35886f068d794ebd,30212,independent_ll,p_c,0.09000000000000001,green falls,NA,NA,NA,NA,NA,NA,NA,0.09000163999344003,Graduated High School,female,42,29.741333333333333
10,5df009be35886f068d794ebd,30212,independent_ll,p_na,0.42000000000000004,blue does not fall,NA,NA,NA,NA,NA,NA,NA,0.42000031999871995,Graduated High School,female,42,29.741333333333333
10,5df009be35886f068d794ebd,30212,independent_ll,p_nc,0.91,green does not fall,NA,NA,NA,NA,NA,NA,NA,0.90999836000656,Graduated High School,female,42,29.741333333333333
10,5df009be35886f068d794ebd,30212,independent_ll,p_c_given_a,0.12068965517241378,if blue falls green falls,NA,NA,NA,NA,NA,NA,NA,0.12069096313460989,Graduated High School,female,42,29.741333333333333
10,5df009be35886f068d794ebd,30212,independent_ll,p_c_given_na,0.047619047619047616,if blue does not fall green falls,NA,NA,NA,NA,NA,NA,NA,0.047621201803800944,Graduated High School,female,42,29.741333333333333
10,5df009be35886f068d794ebd,30212,independent_ll,p_a_given_c,0.7777777777777778,if green falls blue falls,NA,NA,NA,NA,NA,NA,NA,0.7777716050754427,Graduated High School,female,42,29.741333333333333
10,5df009be35886f068d794ebd,30212,independent_ll,p_a_given_nc,0.5604395604395604,if green does not fall blue falls,NA,NA,NA,NA,NA,NA,NA,0.5604394276056537,Graduated High School,female,42,29.741333333333333
10,5df009be35886f068d794ebd,30212,independent_ll,p_nc_given_a,0.8793103448275861,if blue falls green does not fall,NA,NA,NA,NA,NA,NA,NA,0.8793090368653902,Graduated High School,female,42,29.741333333333333
10,5df009be35886f068d794ebd,30212,independent_ll,p_nc_given_na,0.9523809523809523,if blue does not fall green does not fall,NA,NA,NA,NA,NA,NA,NA,0.952378798196199,Graduated High School,female,42,29.741333333333333
10,5df009be35886f068d794ebd,30212,independent_ll,p_na_given_c,0.2222222222222222,if green falls blue does not fall,NA,NA,NA,NA,NA,NA,NA,0.22222839492455723,Graduated High School,female,42,29.741333333333333
10,5df009be35886f068d794ebd,30212,independent_ll,p_na_given_nc,0.43956043956043955,if green does not fall blue does not fall,NA,NA,NA,NA,NA,NA,NA,0.4395605723943463,Graduated High School,female,42,29.741333333333333
10,5df009be35886f068d794ebd,30212,independent_ll,p_likely_a,0.5800000000000001,blue might fall,NA,NA,NA,NA,NA,NA,NA,0.57999968000128,Graduated High School,female,42,29.741333333333333
10,5df009be35886f068d794ebd,30212,independent_ll,p_likely_na,0.42000000000000004,blue might not fall,NA,NA,NA,NA,NA,NA,NA,0.42000031999871995,Graduated High School,female,42,29.741333333333333
10,5df009be35886f068d794ebd,30212,independent_ll,p_likely_c,0.09000000000000001,green might fall,NA,NA,NA,NA,NA,NA,NA,0.09000163999344003,Graduated High School,female,42,29.741333333333333
10,5df009be35886f068d794ebd,30212,independent_ll,p_likely_nc,0.91,green might not fall,NA,the green block might not fall,NA,31570,3,11,1,0.90999836000656,Graduated High School,female,42,29.741333333333333
12,5df009be35886f068d794ebd,25555,if2_u-Ll,b,0,blue falls but green does not fall,b,NA,NA,NA,NA,NA,NA,9.99996000016e-7,Graduated High School,female,42,29.741333333333333
12,5df009be35886f068d794ebd,25555,if2_u-Ll,g,0.25,green falls but blue does not fall,g,NA,NA,NA,NA,NA,NA,0.25,Graduated High School,female,42,29.741333333333333
12,5df009be35886f068d794ebd,25555,if2_u-Ll,bg,0.51,both blocks fall,bg,NA,NA,NA,NA,NA,NA,0.5099989600041601,Graduated High School,female,42,29.741333333333333
12,5df009be35886f068d794ebd,25555,if2_u-Ll,none,0.24,neither block falls,none,NA,NA,NA,NA,NA,NA,0.24000003999984001,Graduated High School,female,42,29.741333333333333
12,5df009be35886f068d794ebd,25555,if2_u-Ll,p_a,0.51,blue falls,NA,NA,NA,NA,NA,NA,NA,0.5099999600001601,Graduated High School,female,42,29.741333333333333
12,5df009be35886f068d794ebd,25555,if2_u-Ll,p_c,0.76,green falls,NA,NA,NA,NA,NA,NA,NA,0.7599989600041601,Graduated High School,female,42,29.741333333333333
12,5df009be35886f068d794ebd,25555,if2_u-Ll,p_na,0.49,blue does not fall,NA,NA,NA,NA,NA,NA,NA,0.49000003999984,Graduated High School,female,42,29.741333333333333
12,5df009be35886f068d794ebd,25555,if2_u-Ll,p_nc,0.24,green does not fall,NA,NA,NA,NA,NA,NA,NA,0.24000103999584002,Graduated High School,female,42,29.741333333333333
12,5df009be35886f068d794ebd,25555,if2_u-Ll,p_c_given_a,1,if blue falls green falls,NA,if the blue block falls the green block falls as well,NA,12018,6,13,1,0.9999980392233756,Graduated High School,female,42,29.741333333333333
12,5df009be35886f068d794ebd,25555,if2_u-Ll,p_c_given_na,0.5102040816326531,if blue does not fall green falls,NA,NA,NA,NA,NA,NA,NA,0.5102040399835103,Graduated High School,female,42,29.741333333333333
12,5df009be35886f068d794ebd,25555,if2_u-Ll,p_a_given_c,0.6710526315789473,if green falls blue falls,NA,NA,NA,NA,NA,NA,NA,0.6710521814416278,Graduated High School,female,42,29.741333333333333
12,5df009be35886f068d794ebd,25555,if2_u-Ll,p_a_given_nc,0,if green does not fall blue falls,NA,NA,NA,NA,NA,NA,NA,4.166631944733795e-6,Graduated High School,female,42,29.741333333333333
12,5df009be35886f068d794ebd,25555,if2_u-Ll,p_nc_given_a,0,if blue falls green does not fall,NA,NA,NA,NA,NA,NA,NA,1.9607766244053945e-6,Graduated High School,female,42,29.741333333333333
12,5df009be35886f068d794ebd,25555,if2_u-Ll,p_nc_given_na,0.4897959183673469,if blue does not fall green does not fall,NA,NA,NA,NA,NA,NA,NA,0.4897959600164898,Graduated High School,female,42,29.741333333333333
12,5df009be35886f068d794ebd,25555,if2_u-Ll,p_na_given_c,0.32894736842105265,if green falls blue does not fall,NA,NA,NA,NA,NA,NA,NA,0.32894781855837213,Graduated High School,female,42,29.741333333333333
12,5df009be35886f068d794ebd,25555,if2_u-Ll,p_na_given_nc,1,if green does not fall blue does not fall,NA,NA,NA,NA,NA,NA,NA,0.9999958333680553,Graduated High School,female,42,29.741333333333333
12,5df009be35886f068d794ebd,25555,if2_u-Ll,p_likely_a,0.51,blue might fall,NA,NA,NA,NA,NA,NA,NA,0.5099999600001601,Graduated High School,female,42,29.741333333333333
12,5df009be35886f068d794ebd,25555,if2_u-Ll,p_likely_na,0.49,blue might not fall,NA,NA,NA,NA,NA,NA,NA,0.49000003999984,Graduated High School,female,42,29.741333333333333
12,5df009be35886f068d794ebd,25555,if2_u-Ll,p_likely_c,0.76,green might fall,NA,NA,NA,NA,NA,NA,NA,0.7599989600041601,Graduated High School,female,42,29.741333333333333
12,5df009be35886f068d794ebd,25555,if2_u-Ll,p_likely_nc,0.24,green might not fall,NA,NA,NA,NA,NA,NA,NA,0.24000103999584002,Graduated High School,female,42,29.741333333333333
14,5df009be35886f068d794ebd,22140,independent_hl,b,0.25,blue falls but green does not fall,b,NA,NA,NA,NA,NA,NA,0.25,Graduated High School,female,42,29.741333333333333
14,5df009be35886f068d794ebd,22140,independent_hl,g,0.1,green falls but blue does not fall,g,NA,NA,NA,NA,NA,NA,0.10000059999760003,Graduated High School,female,42,29.741333333333333
14,5df009be35886f068d794ebd,22140,independent_hl,bg,0.32,both blocks fall,bg,NA,NA,NA,NA,NA,NA,0.31999972000112004,Graduated High School,female,42,29.741333333333333
14,5df009be35886f068d794ebd,22140,independent_hl,none,0.33,neither block falls,none,NA,NA,NA,NA,NA,NA,0.32999968000128,Graduated High School,female,42,29.741333333333333
14,5df009be35886f068d794ebd,22140,independent_hl,p_a,0.5700000000000001,blue falls,NA,NA,NA,NA,NA,NA,NA,0.56999972000112,Graduated High School,female,42,29.741333333333333
14,5df009be35886f068d794ebd,22140,independent_hl,p_c,0.42000000000000004,green falls,NA,NA,NA,NA,NA,NA,NA,0.42000031999872006,Graduated High School,female,42,29.741333333333333
14,5df009be35886f068d794ebd,22140,independent_hl,p_na,0.43000000000000005,blue does not fall,NA,NA,NA,NA,NA,NA,NA,0.43000027999888,Graduated High School,female,42,29.741333333333333
14,5df009be35886f068d794ebd,22140,independent_hl,p_nc,0.5800000000000001,green does not fall,NA,NA,NA,NA,NA,NA,NA,0.57999968000128,Graduated High School,female,42,29.741333333333333
14,5df009be35886f068d794ebd,22140,independent_hl,p_c_given_a,0.5614035087719298,if blue falls green falls,NA,NA,NA,NA,NA,NA,NA,0.5614032933217779,Graduated High School,female,42,29.741333333333333
14,5df009be35886f068d794ebd,22140,independent_hl,p_c_given_na,0.23255813953488372,if blue does not fall green falls,NA,NA,NA,NA,NA,NA,NA,0.2325593834447282,Graduated High School,female,42,29.741333333333333
14,5df009be35886f068d794ebd,22140,independent_hl,p_a_given_c,0.7619047619047619,if green falls blue falls,NA,NA,NA,NA,NA,NA,NA,0.7619035147451678,Graduated High School,female,42,29.741333333333333
14,5df009be35886f068d794ebd,22140,independent_hl,p_a_given_nc,0.43103448275862066,if green does not fall blue falls,NA,NA,NA,NA,NA,NA,NA,0.4310347205699291,Graduated High School,female,42,29.741333333333333
14,5df009be35886f068d794ebd,22140,independent_hl,p_nc_given_a,0.43859649122807015,if blue falls green does not fall,NA,NA,NA,NA,NA,NA,NA,0.4385967066782222,Graduated High School,female,42,29.741333333333333
14,5df009be35886f068d794ebd,22140,independent_hl,p_nc_given_na,0.7674418604651162,if blue does not fall green does not fall,NA,NA,NA,NA,NA,NA,NA,0.7674406165552718,Graduated High School,female,42,29.741333333333333
14,5df009be35886f068d794ebd,22140,independent_hl,p_na_given_c,0.23809523809523808,if green falls blue does not fall,NA,NA,NA,NA,NA,NA,NA,0.23809648525483212,Graduated High School,female,42,29.741333333333333
14,5df009be35886f068d794ebd,22140,independent_hl,p_na_given_nc,0.5689655172413792,if green does not fall blue does not fall,NA,NA,NA,NA,NA,NA,NA,0.5689652794300709,Graduated High School,female,42,29.741333333333333
14,5df009be35886f068d794ebd,22140,independent_hl,p_likely_a,0.5700000000000001,blue might fall,NA,the blue block might fall,NA,33553,3,15,1,0.56999972000112,Graduated High School,female,42,29.741333333333333
14,5df009be35886f068d794ebd,22140,independent_hl,p_likely_na,0.43000000000000005,blue might not fall,NA,NA,NA,NA,NA,NA,NA,0.43000027999888,Graduated High School,female,42,29.741333333333333
14,5df009be35886f068d794ebd,22140,independent_hl,p_likely_c,0.42000000000000004,green might fall,NA,NA,NA,NA,NA,NA,NA,0.42000031999872006,Graduated High School,female,42,29.741333333333333
14,5df009be35886f068d794ebd,22140,independent_hl,p_likely_nc,0.5800000000000001,green might not fall,NA,NA,NA,NA,NA,NA,NA,0.57999968000128,Graduated High School,female,42,29.741333333333333
16,5df009be35886f068d794ebd,28420,if2_ll,b,0,blue falls but green does not fall,b,NA,NA,NA,NA,NA,NA,1.0100969289012974e-6,Graduated High School,female,42,29.741333333333333
16,5df009be35886f068d794ebd,28420,if2_ll,g,0.42,green falls but blue does not fall,g,NA,NA,NA,NA,NA,NA,0.4242417202354738,Graduated High School,female,42,29.741333333333333
16,5df009be35886f068d794ebd,28420,if2_ll,bg,0.41,both blocks fall,bg,NA,NA,NA,NA,NA,NA,0.4141407509464608,Graduated High School,female,42,29.741333333333333
16,5df009be35886f068d794ebd,28420,if2_ll,none,0.16,neither block falls,none,NA,NA,NA,NA,NA,NA,0.1616165187211365,Graduated High School,female,42,29.741333333333333
16,5df009be35886f068d794ebd,28420,if2_ll,p_a,0.41,blue falls,NA,NA,NA,NA,NA,NA,NA,0.4141417610433897,Graduated High School,female,42,29.741333333333333
16,5df009be35886f068d794ebd,28420,if2_ll,p_c,0.83,green falls,NA,NA,NA,NA,NA,NA,NA,0.8383824711819345,Graduated High School,female,42,29.741333333333333
16,5df009be35886f068d794ebd,28420,if2_ll,p_na,0.58,blue does not fall,NA,NA,NA,NA,NA,NA,NA,0.5858582389566103,Graduated High School,female,42,29.741333333333333
16,5df009be35886f068d794ebd,28420,if2_ll,p_nc,0.16,green does not fall,NA,NA,NA,NA,NA,NA,NA,0.1616175288180654,Graduated High School,female,42,29.741333333333333
16,5df009be35886f068d794ebd,28420,if2_ll,p_c_given_a,1,if blue falls green falls,NA,if the blue block falls the green block falls as well,NA,13722,6,17,1,0.9999975609875075,Graduated High School,female,42,29.741333333333333
16,5df009be35886f068d794ebd,28420,if2_ll,p_c_given_na,0.7241379310344828,if blue does not fall green falls,NA,NA,NA,NA,NA,NA,NA,0.7241371581477305,Graduated High School,female,42,29.741333333333333
16,5df009be35886f068d794ebd,28420,if2_ll,p_a_given_c,0.4939759036144578,if green falls blue falls,NA,NA,NA,NA,NA,NA,NA,0.49397591813031777,Graduated High School,female,42,29.741333333333333
16,5df009be35886f068d794ebd,28420,if2_ll,p_a_given_nc,0,if green does not fall blue falls,NA,NA,NA,NA,NA,NA,NA,6.24992187597655e-6,Graduated High School,female,42,29.741333333333333
16,5df009be35886f068d794ebd,28420,if2_ll,p_nc_given_a,0,if blue falls green does not fall,NA,NA,NA,NA,NA,NA,NA,2.4390124926219876e-6,Graduated High School,female,42,29.741333333333333
16,5df009be35886f068d794ebd,28420,if2_ll,p_nc_given_na,0.2758620689655173,if blue does not fall green does not fall,NA,NA,NA,NA,NA,NA,NA,0.2758628418522695,Graduated High School,female,42,29.741333333333333
16,5df009be35886f068d794ebd,28420,if2_ll,p_na_given_c,0.5060240963855421,if green falls blue does not fall,NA,NA,NA,NA,NA,NA,NA,0.5060240818696823,Graduated High School,female,42,29.741333333333333
16,5df009be35886f068d794ebd,28420,if2_ll,p_na_given_nc,1,if green does not fall blue does not fall,NA,NA,NA,NA,NA,NA,NA,0.999993750078124,Graduated High School,female,42,29.741333333333333
16,5df009be35886f068d794ebd,28420,if2_ll,p_likely_a,0.41,blue might fall,NA,NA,NA,NA,NA,NA,NA,0.4141417610433897,Graduated High School,female,42,29.741333333333333
16,5df009be35886f068d794ebd,28420,if2_ll,p_likely_na,0.58,blue might not fall,NA,NA,NA,NA,NA,NA,NA,0.5858582389566103,Graduated High School,female,42,29.741333333333333
16,5df009be35886f068d794ebd,28420,if2_ll,p_likely_c,0.83,green might fall,NA,NA,NA,NA,NA,NA,NA,0.8383824711819345,Graduated High School,female,42,29.741333333333333
16,5df009be35886f068d794ebd,28420,if2_ll,p_likely_nc,0.16,green might not fall,NA,NA,NA,NA,NA,NA,NA,0.1616175288180654,Graduated High School,female,42,29.741333333333333
18,5df009be35886f068d794ebd,26476,if1_uh,b,0.26,blue falls but green does not fall,b,NA,NA,NA,NA,NA,NA,0.25999996000016,Graduated High School,female,42,29.741333333333333
18,5df009be35886f068d794ebd,26476,if1_uh,g,0,green falls but blue does not fall,g,NA,NA,NA,NA,NA,NA,9.99996000016e-7,Graduated High School,female,42,29.741333333333333
18,5df009be35886f068d794ebd,26476,if1_uh,bg,0.38,both blocks fall,bg,NA,NA,NA,NA,NA,NA,0.37999948000208,Graduated High School,female,42,29.741333333333333
18,5df009be35886f068d794ebd,26476,if1_uh,none,0.36,neither block falls,none,NA,NA,NA,NA,NA,NA,0.35999956000176,Graduated High School,female,42,29.741333333333333
18,5df009be35886f068d794ebd,26476,if1_uh,p_a,0.64,blue falls,NA,NA,NA,NA,NA,NA,NA,0.63999944000224,Graduated High School,female,42,29.741333333333333
18,5df009be35886f068d794ebd,26476,if1_uh,p_c,0.38,green falls,NA,NA,NA,NA,NA,NA,NA,0.38000047999808,Graduated High School,female,42,29.741333333333333
18,5df009be35886f068d794ebd,26476,if1_uh,p_na,0.36,blue does not fall,NA,NA,NA,NA,NA,NA,NA,0.36000055999776,Graduated High School,female,42,29.741333333333333
18,5df009be35886f068d794ebd,26476,if1_uh,p_nc,0.62,green does not fall,NA,NA,NA,NA,NA,NA,NA,0.6199995200019199,Graduated High School,female,42,29.741333333333333
18,5df009be35886f068d794ebd,26476,if1_uh,p_c_given_a,0.59375,if blue falls green falls,NA,NA,NA,NA,NA,NA,NA,0.5937497070321656,Graduated High School,female,42,29.741333333333333
18,5df009be35886f068d794ebd,26476,if1_uh,p_c_given_na,0,if blue does not fall green falls,NA,NA,NA,NA,NA,NA,NA,2.7777623457647462e-6,Graduated High School,female,42,29.741333333333333
18,5df009be35886f068d794ebd,26476,if1_uh,p_a_given_c,1,if green falls blue falls,NA,NA,NA,NA,NA,NA,NA,0.999997368434903,Graduated High School,female,42,29.741333333333333
18,5df009be35886f068d794ebd,26476,if1_uh,p_a_given_nc,0.41935483870967744,if green does not fall blue falls,NA,NA,NA,NA,NA,NA,NA,0.4193550988545199,Graduated High School,female,42,29.741333333333333
18,5df009be35886f068d794ebd,26476,if1_uh,p_nc_given_a,0.40625,if blue falls green does not fall,NA,NA,NA,NA,NA,NA,NA,0.4062502929678345,Graduated High School,female,42,29.741333333333333
18,5df009be35886f068d794ebd,26476,if1_uh,p_nc_given_na,1,if blue does not fall green does not fall,NA,NA,NA,NA,NA,NA,NA,0.9999972222376543,Graduated High School,female,42,29.741333333333333
18,5df009be35886f068d794ebd,26476,if1_uh,p_na_given_c,0,if green falls blue does not fall,NA,NA,NA,NA,NA,NA,NA,2.6315650970258055e-6,Graduated High School,female,42,29.741333333333333
18,5df009be35886f068d794ebd,26476,if1_uh,p_na_given_nc,0.5806451612903225,if green does not fall blue does not fall,NA,NA,NA,NA,NA,NA,NA,0.5806449011454802,Graduated High School,female,42,29.741333333333333
18,5df009be35886f068d794ebd,26476,if1_uh,p_likely_a,0.64,blue might fall,NA,the blue block might fall,NA,26195,3,19,1,0.63999944000224,Graduated High School,female,42,29.741333333333333
18,5df009be35886f068d794ebd,26476,if1_uh,p_likely_na,0.36,blue might not fall,NA,NA,NA,NA,NA,NA,NA,0.36000055999776,Graduated High School,female,42,29.741333333333333
18,5df009be35886f068d794ebd,26476,if1_uh,p_likely_c,0.38,green might fall,NA,NA,NA,NA,NA,NA,NA,0.38000047999808,Graduated High School,female,42,29.741333333333333
18,5df009be35886f068d794ebd,26476,if1_uh,p_likely_nc,0.62,green might not fall,NA,NA,NA,NA,NA,NA,NA,0.6199995200019199,Graduated High School,female,42,29.741333333333333
20,5df009be35886f068d794ebd,33716,independent_uh,b,0.32,blue falls but green does not fall,b,NA,NA,NA,NA,NA,NA,0.31999972000112004,Graduated High School,female,42,29.741333333333333
20,5df009be35886f068d794ebd,33716,independent_uh,g,0.24,green falls but blue does not fall,g,NA,NA,NA,NA,NA,NA,0.24000003999984001,Graduated High School,female,42,29.741333333333333
20,5df009be35886f068d794ebd,33716,independent_uh,bg,0.25,both blocks fall,bg,NA,NA,NA,NA,NA,NA,0.25,Graduated High School,female,42,29.741333333333333
20,5df009be35886f068d794ebd,33716,independent_uh,none,0.19,neither block falls,none,NA,NA,NA,NA,NA,NA,0.19000023999904003,Graduated High School,female,42,29.741333333333333
20,5df009be35886f068d794ebd,33716,independent_uh,p_a,0.5700000000000001,blue falls,NA,NA,NA,NA,NA,NA,NA,0.56999972000112,Graduated High School,female,42,29.741333333333333
20,5df009be35886f068d794ebd,33716,independent_uh,p_c,0.49,green falls,NA,NA,NA,NA,NA,NA,NA,0.49000003999984,Graduated High School,female,42,29.741333333333333
20,5df009be35886f068d794ebd,33716,independent_uh,p_na,0.43,blue does not fall,NA,NA,NA,NA,NA,NA,NA,0.43000027999888,Graduated High School,female,42,29.741333333333333
20,5df009be35886f068d794ebd,33716,independent_uh,p_nc,0.51,green does not fall,NA,NA,NA,NA,NA,NA,NA,0.5099999600001601,Graduated High School,female,42,29.741333333333333
20,5df009be35886f068d794ebd,33716,independent_uh,p_c_given_a,0.43859649122807015,if blue falls green falls,NA,NA,NA,NA,NA,NA,NA,0.4385967066782222,Graduated High School,female,42,29.741333333333333
20,5df009be35886f068d794ebd,33716,independent_uh,p_c_given_na,0.5581395348837209,if blue does not fall green falls,NA,NA,NA,NA,NA,NA,NA,0.5581392644685373,Graduated High School,female,42,29.741333333333333
20,5df009be35886f068d794ebd,33716,independent_uh,p_a_given_c,0.5102040816326531,if green falls blue falls,NA,NA,NA,NA,NA,NA,NA,0.5102040399835103,Graduated High School,female,42,29.741333333333333
20,5df009be35886f068d794ebd,33716,independent_uh,p_a_given_nc,0.6274509803921569,if green does not fall blue falls,NA,NA,NA,NA,NA,NA,NA,0.6274504805863506,Graduated High School,female,42,29.741333333333333
20,5df009be35886f068d794ebd,33716,independent_uh,p_nc_given_a,0.5614035087719298,if blue falls green does not fall,NA,NA,NA,NA,NA,NA,NA,0.5614032933217779,Graduated High School,female,42,29.741333333333333
20,5df009be35886f068d794ebd,33716,independent_uh,p_nc_given_na,0.4418604651162791,if blue does not fall green does not fall,NA,NA,NA,NA,NA,NA,NA,0.4418607355314627,Graduated High School,female,42,29.741333333333333
20,5df009be35886f068d794ebd,33716,independent_uh,p_na_given_c,0.4897959183673469,if green falls blue does not fall,NA,NA,NA,NA,NA,NA,NA,0.4897959600164898,Graduated High School,female,42,29.741333333333333
20,5df009be35886f068d794ebd,33716,independent_uh,p_na_given_nc,0.37254901960784315,if green does not fall blue does not fall,NA,NA,NA,NA,NA,NA,NA,0.37254951941364933,Graduated High School,female,42,29.741333333333333
20,5df009be35886f068d794ebd,33716,independent_uh,p_likely_a,0.5700000000000001,blue might fall,NA,the blue block might fall,NA,36777,3,21,1,0.56999972000112,Graduated High School,female,42,29.741333333333333
20,5df009be35886f068d794ebd,33716,independent_uh,p_likely_na,0.43,blue might not fall,NA,NA,NA,NA,NA,NA,NA,0.43000027999888,Graduated High School,female,42,29.741333333333333
20,5df009be35886f068d794ebd,33716,independent_uh,p_likely_c,0.49,green might fall,NA,NA,NA,NA,NA,NA,NA,0.49000003999984,Graduated High School,female,42,29.741333333333333
20,5df009be35886f068d794ebd,33716,independent_uh,p_likely_nc,0.51,green might not fall,NA,NA,NA,NA,NA,NA,NA,0.5099999600001601,Graduated High School,female,42,29.741333333333333
22,5df009be35886f068d794ebd,30533,if1_lh,b,0.3,blue falls but green does not fall,b,NA,NA,NA,NA,NA,NA,0.2999998000008,Graduated High School,female,42,29.741333333333333
22,5df009be35886f068d794ebd,30533,if1_lh,g,0,green falls but blue does not fall,g,NA,NA,NA,NA,NA,NA,9.99996000016e-7,Graduated High School,female,42,29.741333333333333
22,5df009be35886f068d794ebd,30533,if1_lh,bg,0.41,both blocks fall,bg,NA,NA,NA,NA,NA,NA,0.40999936000256,Graduated High School,female,42,29.741333333333333
22,5df009be35886f068d794ebd,30533,if1_lh,none,0.29,neither block falls,none,NA,NA,NA,NA,NA,NA,0.28999984000064,Graduated High School,female,42,29.741333333333333
22,5df009be35886f068d794ebd,30533,if1_lh,p_a,0.71,blue falls,NA,NA,NA,NA,NA,NA,NA,0.7099991600033599,Graduated High School,female,42,29.741333333333333
22,5df009be35886f068d794ebd,30533,if1_lh,p_c,0.41,green falls,NA,NA,NA,NA,NA,NA,NA,0.41000035999856,Graduated High School,female,42,29.741333333333333
22,5df009be35886f068d794ebd,30533,if1_lh,p_na,0.29,blue does not fall,NA,NA,NA,NA,NA,NA,NA,0.29000083999664,Graduated High School,female,42,29.741333333333333
22,5df009be35886f068d794ebd,30533,if1_lh,p_nc,0.59,green does not fall,NA,NA,NA,NA,NA,NA,NA,0.58999964000144,Graduated High School,female,42,29.741333333333333
22,5df009be35886f068d794ebd,30533,if1_lh,p_c_given_a,0.5774647887323944,if blue falls green falls,NA,NA,NA,NA,NA,NA,NA,0.5774645705223366,Graduated High School,female,42,29.741333333333333
22,5df009be35886f068d794ebd,30533,if1_lh,p_c_given_na,0,if blue does not fall green falls,NA,NA,NA,NA,NA,NA,NA,3.4482520810201317e-6,Graduated High School,female,42,29.741333333333333
22,5df009be35886f068d794ebd,30533,if1_lh,p_a_given_c,1,if green falls blue falls,NA,NA,NA,NA,NA,NA,NA,0.9999975609875074,Graduated High School,female,42,29.741333333333333
22,5df009be35886f068d794ebd,30533,if1_lh,p_a_given_nc,0.5084745762711864,if green does not fall blue falls,NA,NA,NA,NA,NA,NA,NA,0.5084745475439066,Graduated High School,female,42,29.741333333333333
22,5df009be35886f068d794ebd,30533,if1_lh,p_nc_given_a,0.4225352112676056,if blue falls green does not fall,NA,NA,NA,NA,NA,NA,NA,0.4225354294776635,Graduated High School,female,42,29.741333333333333
22,5df009be35886f068d794ebd,30533,if1_lh,p_nc_given_na,1,if blue does not fall green does not fall,NA,NA,NA,NA,NA,NA,NA,0.999996551747919,Graduated High School,female,42,29.741333333333333
22,5df009be35886f068d794ebd,30533,if1_lh,p_na_given_c,0,if green falls blue does not fall,NA,NA,NA,NA,NA,NA,NA,2.4390124926219876e-6,Graduated High School,female,42,29.741333333333333
22,5df009be35886f068d794ebd,30533,if1_lh,p_na_given_nc,0.4915254237288135,if green does not fall blue does not fall,NA,NA,NA,NA,NA,NA,NA,0.49152545245609336,Graduated High School,female,42,29.741333333333333
22,5df009be35886f068d794ebd,30533,if1_lh,p_likely_a,0.71,blue might fall,NA,NA,NA,NA,NA,NA,NA,0.7099991600033599,Graduated High School,female,42,29.741333333333333
22,5df009be35886f068d794ebd,30533,if1_lh,p_likely_na,0.29,blue might not fall,NA,NA,NA,NA,NA,NA,NA,0.29000083999664,Graduated High School,female,42,29.741333333333333
22,5df009be35886f068d794ebd,30533,if1_lh,p_likely_c,0.41,green might fall,NA,NA,NA,NA,NA,NA,NA,0.41000035999856,Graduated High School,female,42,29.741333333333333
22,5df009be35886f068d794ebd,30533,if1_lh,p_likely_nc,0.59,green might not fall,NA,the green block might not fall,NA,32139,3,23,1,0.58999964000144,Graduated High School,female,42,29.741333333333333
24,5df009be35886f068d794ebd,19395,if2_ul,b,0,blue falls but green does not fall,b,NA,NA,NA,NA,NA,NA,1.0100969289012974e-6,Graduated High School,female,42,29.741333333333333
24,5df009be35886f068d794ebd,19395,if2_ul,g,0.39,green falls but blue does not fall,g,NA,NA,NA,NA,NA,NA,0.3939388123684349,Graduated High School,female,42,29.741333333333333
24,5df009be35886f068d794ebd,19395,if2_ul,bg,0.31,both blocks fall,bg,NA,NA,NA,NA,NA,NA,0.31313105805633107,Graduated High School,female,42,29.741333333333333
24,5df009be35886f068d794ebd,19395,if2_ul,none,0.29,neither block falls,none,NA,NA,NA,NA,NA,NA,0.29292911947830513,Graduated High School,female,42,29.741333333333333
24,5df009be35886f068d794ebd,19395,if2_ul,p_a,0.31,blue falls,NA,NA,NA,NA,NA,NA,NA,0.31313206815325995,Graduated High School,female,42,29.741333333333333
24,5df009be35886f068d794ebd,19395,if2_ul,p_c,0.7,green falls,NA,NA,NA,NA,NA,NA,NA,0.707069870424766,Graduated High School,female,42,29.741333333333333
24,5df009be35886f068d794ebd,19395,if2_ul,p_na,0.6799999999999999,blue does not fall,NA,NA,NA,NA,NA,NA,NA,0.6868679318467401,Graduated High School,female,42,29.741333333333333
24,5df009be35886f068d794ebd,19395,if2_ul,p_nc,0.29,green does not fall,NA,NA,NA,NA,NA,NA,NA,0.292930129575234,Graduated High School,female,42,29.741333333333333
24,5df009be35886f068d794ebd,19395,if2_ul,p_c_given_a,1,if blue falls green falls,NA,if the blue block falls the green block falls,NA,10361,5,25,1,0.99999677421436,Graduated High School,female,42,29.741333333333333
24,5df009be35886f068d794ebd,19395,if2_ul,p_c_given_na,0.573529411764706,if blue does not fall green falls,NA,NA,NA,NA,NA,NA,NA,0.5735291955023661,Graduated High School,female,42,29.741333333333333
24,5df009be35886f068d794ebd,19395,if2_ul,p_a_given_c,0.4428571428571429,if green falls blue falls,NA,NA,NA,NA,NA,NA,NA,0.4428573061219825,Graduated High School,female,42,29.741333333333333
24,5df009be35886f068d794ebd,19395,if2_ul,p_a_given_nc,0,if green does not fall blue falls,NA,NA,NA,NA,NA,NA,NA,3.4482520810201312e-6,Graduated High School,female,42,29.741333333333333
24,5df009be35886f068d794ebd,19395,if2_ul,p_nc_given_a,0,if blue falls green does not fall,NA,NA,NA,NA,NA,NA,NA,3.225785640092645e-6,Graduated High School,female,42,29.741333333333333
24,5df009be35886f068d794ebd,19395,if2_ul,p_nc_given_na,0.4264705882352941,if blue does not fall green does not fall,NA,NA,NA,NA,NA,NA,NA,0.42647080449763375,Graduated High School,female,42,29.741333333333333
24,5df009be35886f068d794ebd,19395,if2_ul,p_na_given_c,0.5571428571428572,if green falls blue does not fall,NA,NA,NA,NA,NA,NA,NA,0.5571426938780175,Graduated High School,female,42,29.741333333333333
24,5df009be35886f068d794ebd,19395,if2_ul,p_na_given_nc,1,if green does not fall blue does not fall,NA,NA,NA,NA,NA,NA,NA,0.999996551747919,Graduated High School,female,42,29.741333333333333
24,5df009be35886f068d794ebd,19395,if2_ul,p_likely_a,0.31,blue might fall,NA,NA,NA,NA,NA,NA,NA,0.31313206815325995,Graduated High School,female,42,29.741333333333333
24,5df009be35886f068d794ebd,19395,if2_ul,p_likely_na,0.6799999999999999,blue might not fall,NA,NA,NA,NA,NA,NA,NA,0.6868679318467401,Graduated High School,female,42,29.741333333333333
24,5df009be35886f068d794ebd,19395,if2_ul,p_likely_c,0.7,green might fall,NA,NA,NA,NA,NA,NA,NA,0.707069870424766,Graduated High School,female,42,29.741333333333333
24,5df009be35886f068d794ebd,19395,if2_ul,p_likely_nc,0.29,green might not fall,NA,NA,NA,NA,NA,NA,NA,0.292930129575234,Graduated High School,female,42,29.741333333333333
26,5df009be35886f068d794ebd,20044,independent_hh,b,0.27,blue falls but green does not fall,b,NA,NA,NA,NA,NA,NA,0.26999992000032,Graduated High School,female,42,29.741333333333333
26,5df009be35886f068d794ebd,20044,independent_hh,g,0.27,green falls but blue does not fall,g,NA,NA,NA,NA,NA,NA,0.26999992000032,Graduated High School,female,42,29.741333333333333
26,5df009be35886f068d794ebd,20044,independent_hh,bg,0.33,both blocks fall,bg,both blocks fall,NA,15538,2,27,1,0.32999968000128,Graduated High School,female,42,29.741333333333333
26,5df009be35886f068d794ebd,20044,independent_hh,none,0.13,neither block falls,none,NA,NA,NA,NA,NA,NA,0.13000047999808004,Graduated High School,female,42,29.741333333333333
26,5df009be35886f068d794ebd,20044,independent_hh,p_a,0.6000000000000001,blue falls,NA,NA,NA,NA,NA,NA,NA,0.5999996000016,Graduated High School,female,42,29.741333333333333
26,5df009be35886f068d794ebd,20044,independent_hh,p_c,0.6000000000000001,green falls,NA,NA,NA,NA,NA,NA,NA,0.5999996000016,Graduated High School,female,42,29.741333333333333
26,5df009be35886f068d794ebd,20044,independent_hh,p_na,0.4,blue does not fall,NA,NA,NA,NA,NA,NA,NA,0.4000003999984001,Graduated High School,female,42,29.741333333333333
26,5df009be35886f068d794ebd,20044,independent_hh,p_nc,0.4,green does not fall,NA,NA,NA,NA,NA,NA,NA,0.4000003999984001,Graduated High School,female,42,29.741333333333333
26,5df009be35886f068d794ebd,20044,independent_hh,p_c_given_a,0.5499999999999999,if blue falls green falls,NA,NA,NA,NA,NA,NA,NA,0.5499998333338889,Graduated High School,female,42,29.741333333333333
26,5df009be35886f068d794ebd,20044,independent_hh,p_c_given_na,0.675,if blue does not fall green falls,NA,NA,NA,NA,NA,NA,NA,0.6749991250043749,Graduated High School,female,42,29.741333333333333
26,5df009be35886f068d794ebd,20044,independent_hh,p_a_given_c,0.5499999999999999,if green falls blue falls,NA,NA,NA,NA,NA,NA,NA,0.5499998333338889,Graduated High School,female,42,29.741333333333333
26,5df009be35886f068d794ebd,20044,independent_hh,p_a_given_nc,0.675,if green does not fall blue falls,NA,NA,NA,NA,NA,NA,NA,0.6749991250043749,Graduated High School,female,42,29.741333333333333
26,5df009be35886f068d794ebd,20044,independent_hh,p_nc_given_a,0.44999999999999996,if blue falls green does not fall,NA,NA,NA,NA,NA,NA,NA,0.45000016666611115,Graduated High School,female,42,29.741333333333333
26,5df009be35886f068d794ebd,20044,independent_hh,p_nc_given_na,0.325,if blue does not fall green does not fall,NA,NA,NA,NA,NA,NA,NA,0.325000874995625,Graduated High School,female,42,29.741333333333333
26,5df009be35886f068d794ebd,20044,independent_hh,p_na_given_c,0.44999999999999996,if green falls blue does not fall,NA,NA,NA,NA,NA,NA,NA,0.45000016666611115,Graduated High School,female,42,29.741333333333333
26,5df009be35886f068d794ebd,20044,independent_hh,p_na_given_nc,0.325,if green does not fall blue does not fall,NA,NA,NA,NA,NA,NA,NA,0.325000874995625,Graduated High School,female,42,29.741333333333333
26,5df009be35886f068d794ebd,20044,independent_hh,p_likely_a,0.6000000000000001,blue might fall,NA,NA,NA,NA,NA,NA,NA,0.5999996000016,Graduated High School,female,42,29.741333333333333
26,5df009be35886f068d794ebd,20044,independent_hh,p_likely_na,0.4,blue might not fall,NA,NA,NA,NA,NA,NA,NA,0.4000003999984001,Graduated High School,female,42,29.741333333333333
26,5df009be35886f068d794ebd,20044,independent_hh,p_likely_c,0.6000000000000001,green might fall,NA,NA,NA,NA,NA,NA,NA,0.5999996000016,Graduated High School,female,42,29.741333333333333
26,5df009be35886f068d794ebd,20044,independent_hh,p_likely_nc,0.4,green might not fall,NA,NA,NA,NA,NA,NA,NA,0.4000003999984001,Graduated High School,female,42,29.741333333333333
2,5ea98a3faafdd809224b48ec,33513,if2_ll,b,0,blue falls but green does not fall,b,NA,NA,NA,NA,NA,NA,9.99996000016e-7,Higher Degree,male,23,30.992
2,5ea98a3faafdd809224b48ec,33513,if2_ll,g,0,green falls but blue does not fall,g,NA,NA,NA,NA,NA,NA,9.99996000016e-7,Higher Degree,male,23,30.992
2,5ea98a3faafdd809224b48ec,33513,if2_ll,bg,0.52,both blocks fall,bg,NA,NA,NA,NA,NA,NA,0.5199989200043201,Higher Degree,male,23,30.992
2,5ea98a3faafdd809224b48ec,33513,if2_ll,none,0.48,neither block falls,none,neither block falls,NA,32084,2,3,1,0.47999908000367997,Higher Degree,male,23,30.992
2,5ea98a3faafdd809224b48ec,33513,if2_ll,p_a,0.52,blue falls,NA,NA,NA,NA,NA,NA,NA,0.5199999200003201,Higher Degree,male,23,30.992
2,5ea98a3faafdd809224b48ec,33513,if2_ll,p_c,0.52,green falls,NA,NA,NA,NA,NA,NA,NA,0.5199999200003201,Higher Degree,male,23,30.992
2,5ea98a3faafdd809224b48ec,33513,if2_ll,p_na,0.48,blue does not fall,NA,NA,NA,NA,NA,NA,NA,0.48000007999968,Higher Degree,male,23,30.992
2,5ea98a3faafdd809224b48ec,33513,if2_ll,p_nc,0.48,green does not fall,NA,NA,NA,NA,NA,NA,NA,0.48000007999968,Higher Degree,male,23,30.992
2,5ea98a3faafdd809224b48ec,33513,if2_ll,p_c_given_a,1,if blue falls green falls,NA,NA,NA,NA,NA,NA,NA,0.9999980769304734,Higher Degree,male,23,30.992
2,5ea98a3faafdd809224b48ec,33513,if2_ll,p_c_given_na,0,if blue does not fall green falls,NA,NA,NA,NA,NA,NA,NA,2.083324652813947e-6,Higher Degree,male,23,30.992
2,5ea98a3faafdd809224b48ec,33513,if2_ll,p_a_given_c,1,if green falls blue falls,NA,NA,NA,NA,NA,NA,NA,0.9999980769304734,Higher Degree,male,23,30.992
2,5ea98a3faafdd809224b48ec,33513,if2_ll,p_a_given_nc,0,if green does not fall blue falls,NA,NA,NA,NA,NA,NA,NA,2.083324652813947e-6,Higher Degree,male,23,30.992
2,5ea98a3faafdd809224b48ec,33513,if2_ll,p_nc_given_a,0,if blue falls green does not fall,NA,NA,NA,NA,NA,NA,NA,1.9230695266556667e-6,Higher Degree,male,23,30.992
2,5ea98a3faafdd809224b48ec,33513,if2_ll,p_nc_given_na,1,if blue does not fall green does not fall,NA,NA,NA,NA,NA,NA,NA,0.9999979166753472,Higher Degree,male,23,30.992
2,5ea98a3faafdd809224b48ec,33513,if2_ll,p_na_given_c,0,if green falls blue does not fall,NA,NA,NA,NA,NA,NA,NA,1.9230695266556667e-6,Higher Degree,male,23,30.992
2,5ea98a3faafdd809224b48ec,33513,if2_ll,p_na_given_nc,1,if green does not fall blue does not fall,NA,NA,NA,NA,NA,NA,NA,0.9999979166753472,Higher Degree,male,23,30.992
2,5ea98a3faafdd809224b48ec,33513,if2_ll,p_likely_a,0.52,blue might fall,NA,NA,NA,NA,NA,NA,NA,0.5199999200003201,Higher Degree,male,23,30.992
2,5ea98a3faafdd809224b48ec,33513,if2_ll,p_likely_na,0.48,blue might not fall,NA,NA,NA,NA,NA,NA,NA,0.48000007999968,Higher Degree,male,23,30.992
2,5ea98a3faafdd809224b48ec,33513,if2_ll,p_likely_c,0.52,green might fall,NA,NA,NA,NA,NA,NA,NA,0.5199999200003201,Higher Degree,male,23,30.992
2,5ea98a3faafdd809224b48ec,33513,if2_ll,p_likely_nc,0.48,green might not fall,NA,NA,NA,NA,NA,NA,NA,0.48000007999968,Higher Degree,male,23,30.992
4,5ea98a3faafdd809224b48ec,34562,if1_u-Lh,b,0,blue falls but green does not fall,b,NA,NA,NA,NA,NA,NA,9.99996000016e-7,Higher Degree,male,23,30.992
4,5ea98a3faafdd809224b48ec,34562,if1_u-Lh,g,0,green falls but blue does not fall,g,NA,NA,NA,NA,NA,NA,9.99996000016e-7,Higher Degree,male,23,30.992
4,5ea98a3faafdd809224b48ec,34562,if1_u-Lh,bg,0.65,both blocks fall,bg,NA,NA,NA,NA,NA,NA,0.6499984000064001,Higher Degree,male,23,30.992
4,5ea98a3faafdd809224b48ec,34562,if1_u-Lh,none,0.35,neither block falls,none,NA,NA,NA,NA,NA,NA,0.34999960000159996,Higher Degree,male,23,30.992
4,5ea98a3faafdd809224b48ec,34562,if1_u-Lh,p_a,0.65,blue falls,NA,NA,NA,NA,NA,NA,NA,0.6499994000024001,Higher Degree,male,23,30.992
4,5ea98a3faafdd809224b48ec,34562,if1_u-Lh,p_c,0.65,green falls,NA,NA,NA,NA,NA,NA,NA,0.6499994000024001,Higher Degree,male,23,30.992
4,5ea98a3faafdd809224b48ec,34562,if1_u-Lh,p_na,0.35,blue does not fall,NA,NA,NA,NA,NA,NA,NA,0.35000059999759997,Higher Degree,male,23,30.992
4,5ea98a3faafdd809224b48ec,34562,if1_u-Lh,p_nc,0.35,green does not fall,NA,NA,NA,NA,NA,NA,NA,0.35000059999759997,Higher Degree,male,23,30.992
4,5ea98a3faafdd809224b48ec,34562,if1_u-Lh,p_c_given_a,1,if blue falls green falls,NA,if the blue block falls the green block falls as well,NA,14232,6,5,1,0.9999984615431953,Higher Degree,male,23,30.992
4,5ea98a3faafdd809224b48ec,34562,if1_u-Lh,p_c_given_na,0,if blue does not fall green falls,NA,NA,NA,NA,NA,NA,NA,2.8571265307055395e-6,Higher Degree,male,23,30.992
4,5ea98a3faafdd809224b48ec,34562,if1_u-Lh,p_a_given_c,1,if green falls blue falls,NA,NA,NA,NA,NA,NA,NA,0.9999984615431953,Higher Degree,male,23,30.992
4,5ea98a3faafdd809224b48ec,34562,if1_u-Lh,p_a_given_nc,0,if green does not fall blue falls,NA,NA,NA,NA,NA,NA,NA,2.8571265307055395e-6,Higher Degree,male,23,30.992
4,5ea98a3faafdd809224b48ec,34562,if1_u-Lh,p_nc_given_a,0,if blue falls green does not fall,NA,NA,NA,NA,NA,NA,NA,1.538456804748293e-6,Higher Degree,male,23,30.992
4,5ea98a3faafdd809224b48ec,34562,if1_u-Lh,p_nc_given_na,1,if blue does not fall green does not fall,NA,NA,NA,NA,NA,NA,NA,0.9999971428734693,Higher Degree,male,23,30.992
4,5ea98a3faafdd809224b48ec,34562,if1_u-Lh,p_na_given_c,0,if green falls blue does not fall,NA,NA,NA,NA,NA,NA,NA,1.538456804748293e-6,Higher Degree,male,23,30.992
4,5ea98a3faafdd809224b48ec,34562,if1_u-Lh,p_na_given_nc,1,if green does not fall blue does not fall,NA,NA,NA,NA,NA,NA,NA,0.9999971428734693,Higher Degree,male,23,30.992
4,5ea98a3faafdd809224b48ec,34562,if1_u-Lh,p_likely_a,0.65,blue might fall,NA,NA,NA,NA,NA,NA,NA,0.6499994000024001,Higher Degree,male,23,30.992
4,5ea98a3faafdd809224b48ec,34562,if1_u-Lh,p_likely_na,0.35,blue might not fall,NA,NA,NA,NA,NA,NA,NA,0.35000059999759997,Higher Degree,male,23,30.992
4,5ea98a3faafdd809224b48ec,34562,if1_u-Lh,p_likely_c,0.65,green might fall,NA,NA,NA,NA,NA,NA,NA,0.6499994000024001,Higher Degree,male,23,30.992
4,5ea98a3faafdd809224b48ec,34562,if1_u-Lh,p_likely_nc,0.35,green might not fall,NA,NA,NA,NA,NA,NA,NA,0.35000059999759997,Higher Degree,male,23,30.992
6,5ea98a3faafdd809224b48ec,23706,independent_ul,b,0.38,blue falls but green does not fall,b,the blue block falls and the green block does not fall,NA,73792,6,7,1,0.37999948000208,Higher Degree,male,23,30.992
6,5ea98a3faafdd809224b48ec,23706,independent_ul,g,0,green falls but blue does not fall,g,NA,NA,NA,NA,NA,NA,9.99996000016e-7,Higher Degree,male,23,30.992
6,5ea98a3faafdd809224b48ec,23706,independent_ul,bg,0.62,both blocks fall,bg,NA,NA,NA,NA,NA,NA,0.61999852000592,Higher Degree,male,23,30.992
6,5ea98a3faafdd809224b48ec,23706,independent_ul,none,0,neither block falls,none,NA,NA,NA,NA,NA,NA,9.99996000016e-7,Higher Degree,male,23,30.992
6,5ea98a3faafdd809224b48ec,23706,independent_ul,p_a,1,blue falls,NA,NA,NA,NA,NA,NA,NA,0.999998000008,Higher Degree,male,23,30.992
6,5ea98a3faafdd809224b48ec,23706,independent_ul,p_c,0.62,green falls,NA,NA,NA,NA,NA,NA,NA,0.61999952000192,Higher Degree,male,23,30.992
6,5ea98a3faafdd809224b48ec,23706,independent_ul,p_na,0,blue does not fall,NA,NA,NA,NA,NA,NA,NA,1.999992000032e-6,Higher Degree,male,23,30.992
6,5ea98a3faafdd809224b48ec,23706,independent_ul,p_nc,0.38,green does not fall,NA,NA,NA,NA,NA,NA,NA,0.38000047999808,Higher Degree,male,23,30.992
6,5ea98a3faafdd809224b48ec,23706,independent_ul,p_c_given_a,0.62,if blue falls green falls,NA,NA,NA,NA,NA,NA,NA,0.6199997600004801,Higher Degree,male,23,30.992
6,5ea98a3faafdd809224b48ec,23706,independent_ul,p_c_given_na,NA,if blue does not fall green falls,NA,NA,NA,NA,NA,NA,NA,0.5,Higher Degree,male,23,30.992
6,5ea98a3faafdd809224b48ec,23706,independent_ul,p_a_given_c,1,if green falls blue falls,NA,NA,NA,NA,NA,NA,NA,0.9999983871019771,Higher Degree,male,23,30.992
6,5ea98a3faafdd809224b48ec,23706,independent_ul,p_a_given_nc,1,if green does not fall blue falls,NA,NA,NA,NA,NA,NA,NA,0.999997368434903,Higher Degree,male,23,30.992
6,5ea98a3faafdd809224b48ec,23706,independent_ul,p_nc_given_a,0.38,if blue falls green does not fall,NA,NA,NA,NA,NA,NA,NA,0.38000023999952,Higher Degree,male,23,30.992
6,5ea98a3faafdd809224b48ec,23706,independent_ul,p_nc_given_na,NA,if blue does not fall green does not fall,NA,NA,NA,NA,NA,NA,NA,0.5,Higher Degree,male,23,30.992
6,5ea98a3faafdd809224b48ec,23706,independent_ul,p_na_given_c,0,if green falls blue does not fall,NA,NA,NA,NA,NA,NA,NA,1.6128980229096036e-6,Higher Degree,male,23,30.992
6,5ea98a3faafdd809224b48ec,23706,independent_ul,p_na_given_nc,0,if green does not fall blue does not fall,NA,NA,NA,NA,NA,NA,NA,2.6315650970258055e-6,Higher Degree,male,23,30.992
6,5ea98a3faafdd809224b48ec,23706,independent_ul,p_likely_a,1,blue might fall,NA,NA,NA,NA,NA,NA,NA,0.999998000008,Higher Degree,male,23,30.992
